
time,ax,ay,az,wx,wy,wz,Bx,By,Bz,
0.033033,0.0000,0.0000,0.0000,-0.0134,-0.0874,0.0067,0.0000,0.0000,0.0000,
0.037181,0.0000,0.0000,0.0000,-0.0134,-0.0874,0.0067,-10.2460,0.2220,-101.6500,
0.052756,0.0000,0.0000,0.0000,-0.0134,-0.0874,0.0067,-10.2460,0.2220,-101.6500,
0.053187,0.0000,0.0000,0.0000,-0.0134,-0.0874,0.0067,-10.2460,0.2220,-101.6500,
0.073366,0.0000,0.0000,0.0000,-0.0134,-0.0874,0.0067,-10.2460,0.2220,-101.6500,
0.093147,0.0000,0.0000,0.0000,-0.0134,-0.0874,0.0067,-10.2460,0.2220,-101.6500,
0.097306,0.0000,0.0000,0.0000,-0.0134,-0.0874,0.0067,-10.5180,-0.1810,-103.1920,
0.113044,0.0000,0.0000,0.0000,-0.0134,-0.0874,0.0067,-10.5180,-0.1810,-103.1920,
0.113424,0.0028,-0.0188,-0.0820,-0.0134,-0.0874,0.0067,-10.5180,-0.1810,-103.1920,
0.113785,0.0028,-0.0188,-0.0820,-0.0134,-0.0874,0.0067,-10.5180,-0.1810,-103.1920,
0.133107,0.0028,-0.0188,-0.0820,0.0012,0.0287,-0.0043,-10.5180,-0.1810,-103.1920,
0.153105,0.0028,-0.0188,-0.0820,0.0000,0.0128,0.0031,-10.5180,-0.1810,-103.1920,
0.157462,0.0028,-0.0188,-0.0820,0.0000,0.0128,0.0031,-10.8720,-0.2150,-103.1900,
0.172897,0.0028,-0.0188,-0.0820,0.0000,0.0128,0.0031,-10.8720,-0.2150,-103.1900,
0.173251,-0.0193,0.0280,0.1061,0.0000,0.0128,0.0031,-10.8720,-0.2150,-103.1900,
0.173713,-0.0193,0.0280,0.1061,0.0189,0.0275,0.0073,-10.8720,-0.2150,-103.1900,
0.193723,-0.0193,0.0280,0.1061,0.0440,0.0385,0.0092,-10.8720,-0.2150,-103.1900,
0.213436,-0.0193,0.0280,0.1061,0.0275,0.0244,0.0128,-10.8720,-0.2150,-103.1900,
0.217441,-0.0193,0.0280,0.1061,0.0275,0.0244,0.0128,-10.1730,-0.2410,-103.5250,
0.233202,-0.0193,0.0280,0.1061,0.0275,0.0244,0.0128,-10.1730,-0.2410,-103.5250,
0.233638,-0.0284,-0.0169,-0.0994,0.0275,0.0244,0.0128,-10.1730,-0.2410,-103.5250,
0.234077,-0.0284,-0.0169,-0.0994,0.0055,0.0189,0.0153,-10.1730,-0.2410,-103.5250,
0.257507,-0.0284,-0.0169,-0.0994,-0.0073,0.0214,0.0110,-10.1730,-0.2410,-103.5250,
0.273526,-0.0284,-0.0169,-0.0994,0.0006,0.0238,0.0086,-10.1730,-0.2410,-103.5250,
0.278060,-0.0284,-0.0169,-0.0994,0.0006,0.0238,0.0086,-10.3040,-0.4370,-103.5240,
0.292842,-0.0284,-0.0169,-0.0994,0.0006,0.0238,0.0086,-10.3040,-0.4370,-103.5240,
0.293197,-0.0224,0.0262,0.0902,0.0006,0.0238,0.0086,-10.3040,-0.4370,-103.5240,
0.293559,-0.0224,0.0262,0.0902,0.0073,-0.0116,0.0031,-10.3040,-0.4370,-103.5240,
0.313279,-0.0224,0.0262,0.0902,0.0110,-0.0128,0.0061,-10.3040,-0.4370,-103.5240,
0.333463,-0.0224,0.0262,0.0902,0.0177,-0.0281,0.0018,-10.3040,-0.4370,-103.5240,
0.337624,-0.0224,0.0262,0.0902,0.0177,-0.0281,0.0018,-11.4330,0.0140,-101.8620,
0.354022,-0.0224,0.0262,0.0902,0.0177,-0.0281,0.0018,-11.4330,0.0140,-101.8620,
0.354917,0.0432,-0.0588,-0.0094,0.0177,-0.0281,0.0018,-11.4330,0.0140,-101.8620,
0.355733,0.0432,-0.0588,-0.0094,0.0250,-0.0043,0.0049,-11.4330,0.0140,-101.8620,
0.373586,0.0432,-0.0588,-0.0094,0.0318,0.0079,0.0092,-11.4330,0.0140,-101.8620,
0.394364,0.0432,-0.0588,-0.0094,0.0202,0.0110,0.0055,-11.4330,0.0140,-101.8620,
0.398064,0.0432,-0.0588,-0.0094,0.0202,0.0110,0.0055,-11.7380,0.8920,-103.4090,
0.415793,0.0432,-0.0588,-0.0094,0.0202,0.0110,0.0055,-11.7380,0.8920,-103.4090,
0.416676,0.0044,0.0196,-0.1495,0.0202,0.0110,0.0055,-11.7380,0.8920,-103.4090,
0.417447,0.0044,0.0196,-0.1495,-0.0226,-0.0110,-0.0067,-11.7380,0.8920,-103.4090,
0.433224,0.0044,0.0196,-0.1495,-0.0379,-0.0061,-0.0073,-11.7380,0.8920,-103.4090,
0.453174,0.0044,0.0196,-0.1495,-0.0202,-0.0092,-0.0104,-11.7380,0.8920,-103.4090,
0.457474,0.0044,0.0196,-0.1495,-0.0202,-0.0092,-0.0104,-11.0900,1.7830,-103.0860,
0.473316,0.0044,0.0196,-0.1495,-0.0202,-0.0092,-0.0104,-11.0900,1.7830,-103.0860,
0.473856,0.0098,-0.0409,0.0956,-0.0202,-0.0092,-0.0104,-11.0900,1.7830,-103.0860,
0.474386,0.0098,-0.0409,0.0956,0.0061,-0.0024,-0.0086,-11.0900,1.7830,-103.0860,
0.493169,0.0098,-0.0409,0.0956,0.0183,0.0012,-0.0067,-11.0900,1.7830,-103.0860,
0.513375,0.0098,-0.0409,0.0956,0.0067,-0.0031,-0.0092,-11.0900,1.7830,-103.0860,
0.517641,0.0098,-0.0409,0.0956,0.0067,-0.0031,-0.0092,-10.5260,1.3830,-102.4260,
0.533386,0.0098,-0.0409,0.0956,0.0067,-0.0031,-0.0092,-10.5260,1.3830,-102.4260,
0.534260,0.0215,-0.0618,-0.0232,0.0067,-0.0031,-0.0092,-10.5260,1.3830,-102.4260,
0.535070,0.0215,-0.0618,-0.0232,-0.0110,-0.0275,-0.0128,-10.5260,1.3830,-102.4260,
0.554979,0.0215,-0.0618,-0.0232,-0.0092,-0.0232,-0.0159,-10.5260,1.3830,-102.4260,
0.573288,0.0215,-0.0618,-0.0232,0.0092,0.0037,-0.0147,-10.5260,1.3830,-102.4260,
0.577681,0.0215,-0.0618,-0.0232,0.0092,0.0037,-0.0147,-10.9340,0.5180,-102.3090,
0.594055,0.0215,-0.0618,-0.0232,0.0092,0.0037,-0.0147,-10.9340,0.5180,-102.3090,
0.594791,-0.0071,-0.0210,-0.1318,0.0092,0.0037,-0.0147,-10.9340,0.5180,-102.3090,
0.595733,-0.0071,-0.0210,-0.1318,0.0031,0.0079,-0.0079,-10.9340,0.5180,-102.3090,
0.614432,-0.0071,-0.0210,-0.1318,-0.0244,0.0079,-0.0049,-10.9340,0.5180,-102.3090,
0.634177,-0.0071,-0.0210,-0.1318,-0.0446,-0.0165,-0.0079,-10.9340,0.5180,-102.3090,
0.638406,-0.0071,-0.0210,-0.1318,-0.0446,-0.0165,-0.0079,-11.2810,0.6640,-102.9700,
0.653785,-0.0071,-0.0210,-0.1318,-0.0446,-0.0165,-0.0079,-11.2810,0.6640,-102.9700,
0.654975,0.0172,-0.0475,0.1307,-0.0446,-0.0165,-0.0079,-11.2810,0.6640,-102.9700,
0.656114,0.0172,-0.0475,0.1307,-0.0330,-0.0342,-0.0183,-11.2810,0.6640,-102.9700,
0.674356,0.0172,-0.0475,0.1307,-0.0171,-0.0257,-0.0232,-11.2810,0.6640,-102.9700,
0.693574,0.0172,-0.0475,0.1307,0.0018,0.0006,-0.0092,-11.2810,0.6640,-102.9700,
0.698689,0.0172,-0.0475,0.1307,0.0018,0.0006,-0.0092,-12.2830,1.3970,-102.4140,
0.714040,0.0172,-0.0475,0.1307,0.0018,0.0006,-0.0092,-12.2830,1.3970,-102.4140,
0.714829,-0.0204,-0.0113,-0.0371,0.0018,0.0006,-0.0092,-12.2830,1.3970,-102.4140,
0.715534,-0.0204,-0.0113,-0.0371,0.0110,0.0128,-0.0086,-12.2830,1.3970,-102.4140,
0.733724,-0.0204,-0.0113,-0.0371,0.0018,0.0079,-0.0043,-12.2830,1.3970,-102.4140,
0.754033,-0.0204,-0.0113,-0.0371,-0.0055,-0.0153,-0.0086,-12.2830,1.3970,-102.4140,
0.759039,-0.0204,-0.0113,-0.0371,-0.0055,-0.0153,-0.0086,-11.9810,2.1750,-100.2110,
0.774026,-0.0204,-0.0113,-0.0371,-0.0055,-0.0153,-0.0086,-11.9810,2.1750,-100.2110,
0.775141,0.0197,-0.0356,0.0541,-0.0055,-0.0153,-0.0086,-11.9810,2.1750,-100.2110,
0.776444,0.0197,-0.0356,0.0541,-0.0018,-0.0263,-0.0153,-11.9810,2.1750,-100.2110,
0.794117,0.0197,-0.0356,0.0541,0.0031,-0.0116,-0.0122,-11.9810,2.1750,-100.2110,
0.814289,0.0197,-0.0356,0.0541,-0.0037,0.0079,-0.0024,-11.9810,2.1750,-100.2110,
0.818468,0.0197,-0.0356,0.0541,-0.0037,0.0079,-0.0024,-10.6470,1.3690,-102.7560,
0.834351,0.0197,-0.0356,0.0541,-0.0037,0.0079,-0.0024,-10.6470,1.3690,-102.7560,
0.835516,-0.0394,-0.0059,-0.0349,-0.0037,0.0079,-0.0024,-10.6470,1.3690,-102.7560,
0.837281,-0.0394,-0.0059,-0.0349,-0.0147,0.0128,-0.0006,-10.6470,1.3690,-102.7560,
0.854038,-0.0394,-0.0059,-0.0349,-0.0159,-0.0092,-0.0067,-10.6470,1.3690,-102.7560,
0.873607,-0.0394,-0.0059,-0.0349,-0.0031,-0.0104,-0.0140,-10.6470,1.3690,-102.7560,
0.878068,-0.0394,-0.0059,-0.0349,-0.0031,-0.0104,-0.0140,-11.1800,0.6590,-105.1780,
0.893437,-0.0394,-0.0059,-0.0349,-0.0031,-0.0104,-0.0140,-11.1800,0.6590,-105.1780,
0.894994,-0.0201,-0.0230,-0.0125,-0.0031,-0.0104,-0.0140,-11.1800,0.6590,-105.1780,
0.895784,-0.0201,-0.0230,-0.0125,0.0049,-0.0006,-0.0037,-11.1800,0.6590,-105.1780,
0.914152,-0.0201,-0.0230,-0.0125,0.0079,0.0079,-0.0018,-11.1800,0.6590,-105.1780,
0.933965,-0.0201,-0.0230,-0.0125,-0.0012,0.0012,-0.0006,-11.1800,0.6590,-105.1780,
0.938823,-0.0201,-0.0230,-0.0125,-0.0012,0.0012,-0.0006,-11.2050,1.7750,-102.6440,
0.953934,-0.0201,-0.0230,-0.0125,-0.0012,0.0012,-0.0006,-11.2050,1.7750,-102.6440,
0.954765,-0.0426,-0.0097,0.0382,-0.0012,0.0012,-0.0006,-11.2050,1.7750,-102.6440,
0.955620,-0.0426,-0.0097,0.0382,-0.0079,-0.0086,0.0037,-11.2050,1.7750,-102.6440,
0.973518,-0.0426,-0.0097,0.0382,-0.0012,-0.0043,0.0024,-11.2050,1.7750,-102.6440,
0.993776,-0.0426,-0.0097,0.0382,0.0195,0.0189,0.0067,-11.2050,1.7750,-102.6440,
0.998143,-0.0426,-0.0097,0.0382,0.0195,0.0189,0.0067,-10.1210,2.0730,-101.3270,
1.013879,-0.0426,-0.0097,0.0382,0.0195,0.0189,0.0067,-10.1210,2.0730,-101.3270,
1.014920,-0.0151,-0.0209,-0.0021,0.0195,0.0189,0.0067,-10.1210,2.0730,-101.3270,
1.016132,-0.0151,-0.0209,-0.0021,0.0257,0.0202,0.0122,-10.1210,2.0730,-101.3270,
1.034960,-0.0151,-0.0209,-0.0021,0.0153,0.0079,0.0079,-10.1210,2.0730,-101.3270,
1.054089,-0.0151,-0.0209,-0.0021,0.0043,-0.0018,0.0012,-10.1210,2.0730,-101.3270,
1.058308,-0.0151,-0.0209,-0.0021,0.0043,-0.0018,0.0012,-9.9200,1.6290,-101.8790,
1.073842,-0.0151,-0.0209,-0.0021,0.0043,-0.0018,0.0012,-9.9200,1.6290,-101.8790,
1.074660,-0.0336,0.0320,-0.0620,0.0043,-0.0018,0.0012,-9.9200,1.6290,-101.8790,
1.075427,-0.0336,0.0320,-0.0620,-0.0037,-0.0067,0.0073,-9.9200,1.6290,-101.8790,
1.093898,-0.0336,0.0320,-0.0620,-0.0128,-0.0116,0.0049,-9.9200,1.6290,-101.8790,
1.114833,-0.0336,0.0320,-0.0620,-0.0055,0.0122,0.0104,-9.9200,1.6290,-101.8790,
1.118754,-0.0336,0.0320,-0.0620,-0.0055,0.0122,0.0104,-10.2980,1.2260,-101.8750,
1.134435,-0.0336,0.0320,-0.0620,-0.0055,0.0122,0.0104,-10.2980,1.2260,-101.8750,
1.135323,-0.0131,0.0232,0.0018,-0.0055,0.0122,0.0104,-10.2980,1.2260,-101.8750,
1.136617,-0.0131,0.0232,0.0018,0.0049,0.0018,0.0128,-10.2980,1.2260,-101.8750,
1.154554,-0.0131,0.0232,0.0018,0.0104,-0.0079,0.0134,-10.2980,1.2260,-101.8750,
1.173921,-0.0131,0.0232,0.0018,-0.0037,-0.0232,0.0079,-10.2980,1.2260,-101.8750,
1.178318,-0.0131,0.0232,0.0018,-0.0037,-0.0232,0.0079,-10.3990,1.4900,-101.9850,
1.194075,-0.0131,0.0232,0.0018,-0.0037,-0.0232,0.0079,-10.3990,1.4900,-101.9850,
1.195200,-0.0198,0.0038,0.0070,-0.0037,-0.0232,0.0079,-10.3990,1.4900,-101.9850,
1.196054,-0.0198,0.0038,0.0070,-0.0134,-0.0281,0.0049,-10.3990,1.4900,-101.9850,
1.214042,-0.0198,0.0038,0.0070,-0.0055,-0.0092,0.0079,-10.3990,1.4900,-101.9850,
1.234379,-0.0198,0.0038,0.0070,-0.0018,-0.0031,0.0098,-10.3990,1.4900,-101.9850,
1.238564,-0.0198,0.0038,0.0070,-0.0018,-0.0031,0.0098,-10.6470,1.2830,-101.9830,
1.254344,-0.0198,0.0038,0.0070,-0.0018,-0.0031,0.0098,-10.6470,1.2830,-101.9830,
1.255261,0.0337,-0.0257,0.0345,-0.0018,-0.0031,0.0098,-10.6470,1.2830,-101.9830,
1.256217,0.0337,-0.0257,0.0345,-0.0098,0.0031,0.0122,-10.6470,1.2830,-101.9830,
1.275150,0.0337,-0.0257,0.0345,0.0043,0.0000,0.0024,-10.6470,1.2830,-101.9830,
1.293754,0.0337,-0.0257,0.0345,0.0189,-0.0079,-0.0037,-10.6470,1.2830,-101.9830,
1.298772,0.0337,-0.0257,0.0345,0.0189,-0.0079,-0.0037,-10.2090,0.7770,-101.5420,
1.314278,0.0337,-0.0257,0.0345,0.0189,-0.0079,-0.0037,-10.2090,0.7770,-101.5420,
1.315091,0.0129,0.0307,-0.1013,0.0189,-0.0079,-0.0037,-10.2090,0.7770,-101.5420,
1.315777,0.0129,0.0307,-0.1013,0.0165,-0.0049,-0.0012,-10.2090,0.7770,-101.5420,
1.334121,0.0129,0.0307,-0.1013,-0.0018,-0.0140,0.0000,-10.2090,0.7770,-101.5420,
1.354388,0.0129,0.0307,-0.1013,-0.0183,-0.0086,0.0043,-10.2090,0.7770,-101.5420,
1.359212,0.0129,0.0307,-0.1013,-0.0183,-0.0086,0.0043,-10.5550,0.8370,-101.3190,
1.374900,0.0129,0.0307,-0.1013,-0.0183,-0.0086,0.0043,-10.5550,0.8370,-101.3190,
1.375731,-0.0349,0.0161,-0.1181,-0.0183,-0.0086,0.0043,-10.5550,0.8370,-101.3190,
1.376585,-0.0349,0.0161,-0.1181,-0.0336,-0.0177,-0.0018,-10.5550,0.8370,-101.3190,
1.394225,-0.0349,0.0161,-0.1181,-0.0476,-0.0342,-0.0031,-10.5550,0.8370,-101.3190,
1.414096,-0.0349,0.0161,-0.1181,-0.0519,-0.0220,-0.0079,-10.5550,0.8370,-101.3190,
1.418679,-0.0349,0.0161,-0.1181,-0.0519,-0.0220,-0.0079,-10.6830,0.7290,-101.8700,
1.434178,-0.0349,0.0161,-0.1181,-0.0519,-0.0220,-0.0079,-10.6830,0.7290,-101.8700,
1.435105,0.0162,-0.0206,0.1413,-0.0519,-0.0220,-0.0079,-10.6830,0.7290,-101.8700,
1.436074,0.0162,-0.0206,0.1413,-0.0299,0.0031,-0.0024,-10.6830,0.7290,-101.8700,
1.453806,0.0162,-0.0206,0.1413,0.0073,0.0147,0.0043,-10.6830,0.7290,-101.8700,
1.474700,0.0162,-0.0206,0.1413,0.0165,0.0067,0.0061,-10.6830,0.7290,-101.8700,
1.478170,0.0162,-0.0206,0.1413,0.0165,0.0067,0.0061,-10.7950,0.8960,-102.7530,
1.493990,0.0162,-0.0206,0.1413,0.0165,0.0067,0.0061,-10.7950,0.8960,-102.7530,
1.495656,-0.0622,-0.0309,0.0310,0.0165,0.0067,0.0061,-10.7950,0.8960,-102.7530,
1.497159,-0.0622,-0.0309,0.0310,0.0098,-0.0073,0.0067,-10.7950,0.8960,-102.7530,
1.515301,-0.0622,-0.0309,0.0310,-0.0024,-0.0189,0.0024,-10.7950,0.8960,-102.7530,
1.533117,-0.0622,-0.0309,0.0310,-0.0043,0.0031,0.0012,-10.7950,0.8960,-102.7530,
1.537797,-0.0622,-0.0309,0.0310,-0.0043,0.0031,0.0012,-11.3640,1.2910,-104.0760,
1.553321,-0.0622,-0.0309,0.0310,-0.0043,0.0031,0.0012,-11.3640,1.2910,-104.0760,
1.553777,-0.0325,0.0069,-0.0169,-0.0043,0.0031,0.0012,-11.3640,1.2910,-104.0760,
1.554209,-0.0325,0.0069,-0.0169,0.0018,0.0012,0.0067,-11.3640,1.2910,-104.0760,
1.573397,-0.0325,0.0069,-0.0169,0.0012,0.0098,0.0061,-11.3640,1.2910,-104.0760,
1.593678,-0.0325,0.0069,-0.0169,-0.0116,-0.0116,-0.0006,-11.3640,1.2910,-104.0760,
1.598059,-0.0325,0.0069,-0.0169,-0.0116,-0.0116,-0.0006,-11.5950,1.3600,-104.1850,
1.613822,-0.0325,0.0069,-0.0169,-0.0116,-0.0116,-0.0006,-11.5950,1.3600,-104.1850,
1.614987,0.0078,-0.0061,-0.1585,-0.0116,-0.0116,-0.0006,-11.5950,1.3600,-104.1850,
1.616255,0.0078,-0.0061,-0.1585,-0.0238,-0.0183,-0.0006,-11.5950,1.3600,-104.1850,
1.634598,0.0078,-0.0061,-0.1585,-0.0397,-0.0165,-0.0031,-11.5950,1.3600,-104.1850,
1.654717,0.0078,-0.0061,-0.1585,-0.0476,-0.0037,-0.0031,-11.5950,1.3600,-104.1850,
1.659401,0.0078,-0.0061,-0.1585,-0.0476,-0.0037,-0.0031,-10.3260,0.9390,-103.0880,
1.675422,0.0078,-0.0061,-0.1585,-0.0476,-0.0037,-0.0031,-10.3260,0.9390,-103.0880,
1.676420,-0.0462,0.0007,0.1023,-0.0476,-0.0037,-0.0031,-10.3260,0.9390,-103.0880,
1.677286,-0.0462,0.0007,0.1023,-0.0391,0.0061,-0.0012,-10.3260,0.9390,-103.0880,
1.693817,-0.0462,0.0007,0.1023,-0.0208,0.0024,0.0024,-10.3260,0.9390,-103.0880,
1.714839,-0.0462,0.0007,0.1023,-0.0140,-0.0110,0.0000,-10.3260,0.9390,-103.0880,
1.719068,-0.0462,0.0007,0.1023,-0.0140,-0.0110,0.0000,-9.2860,0.5890,-101.8790,
1.733881,-0.0462,0.0007,0.1023,-0.0140,-0.0110,0.0000,-9.2860,0.5890,-101.8790,
1.734719,0.0347,-0.0331,-0.0301,-0.0140,-0.0110,0.0000,-9.2860,0.5890,-101.8790,
1.735617,0.0347,-0.0331,-0.0301,-0.0165,-0.0061,-0.0018,-9.2860,0.5890,-101.8790,
1.754222,0.0347,-0.0331,-0.0301,-0.0208,-0.0153,-0.0055,-9.2860,0.5890,-101.8790,
1.774156,0.0347,-0.0331,-0.0301,-0.0305,-0.0055,-0.0037,-9.2860,0.5890,-101.8790,
1.778140,0.0347,-0.0331,-0.0301,-0.0305,-0.0055,-0.0037,-10.7230,1.9160,-102.2060,
1.794572,0.0347,-0.0331,-0.0301,-0.0305,-0.0055,-0.0037,-10.7230,1.9160,-102.2060,
1.795478,-0.0106,-0.0222,0.0530,-0.0305,-0.0055,-0.0037,-10.7230,1.9160,-102.2060,
1.796703,-0.0106,-0.0222,0.0530,-0.0263,0.0171,0.0024,-10.7230,1.9160,-102.2060,
1.814074,-0.0106,-0.0222,0.0530,-0.0165,0.0037,-0.0018,-10.7230,1.9160,-102.2060,
1.834184,-0.0106,-0.0222,0.0530,-0.0128,-0.0043,-0.0043,-10.7230,1.9160,-102.2060,
1.838673,-0.0106,-0.0222,0.0530,-0.0128,-0.0043,-0.0043,-11.5230,2.2080,-101.9810,
1.854860,-0.0106,-0.0222,0.0530,-0.0128,-0.0043,-0.0043,-11.5230,2.2080,-101.9810,
1.855742,0.0142,-0.0114,0.0172,-0.0128,-0.0043,-0.0043,-11.5230,2.2080,-101.9810,
1.856853,0.0142,-0.0114,0.0172,-0.0159,-0.0220,-0.0128,-11.5230,2.2080,-101.9810,
1.874824,0.0142,-0.0114,0.0172,-0.0098,-0.0177,-0.0104,-11.5230,2.2080,-101.9810,
1.893755,0.0142,-0.0114,0.0172,-0.0110,-0.0073,-0.0086,-11.5230,2.2080,-101.9810,
1.899069,0.0142,-0.0114,0.0172,-0.0110,-0.0073,-0.0086,-12.1630,1.2370,-100.5370,
1.914685,0.0142,-0.0114,0.0172,-0.0110,-0.0073,-0.0086,-12.1630,1.2370,-100.5370,
1.915413,-0.0171,-0.0421,-0.0877,-0.0110,-0.0073,-0.0086,-12.1630,1.2370,-100.5370,
1.916198,-0.0171,-0.0421,-0.0877,-0.0195,0.0086,-0.0067,-12.1630,1.2370,-100.5370,
1.934511,-0.0171,-0.0421,-0.0877,-0.0336,0.0031,-0.0098,-12.1630,1.2370,-100.5370,
1.953984,-0.0171,-0.0421,-0.0877,-0.0373,-0.0086,-0.0092,-12.1630,1.2370,-100.5370,
1.958902,-0.0171,-0.0421,-0.0877,-0.0373,-0.0086,-0.0092,-12.1350,1.6970,-100.8710,
1.974022,-0.0171,-0.0421,-0.0877,-0.0373,-0.0086,-0.0092,-12.1350,1.6970,-100.8710,
1.974747,-0.0175,-0.0337,0.0856,-0.0373,-0.0086,-0.0092,-12.1350,1.6970,-100.8710,
1.975522,-0.0175,-0.0337,0.0856,-0.0305,-0.0159,-0.0171,-12.1350,1.6970,-100.8710,
1.993977,-0.0175,-0.0337,0.0856,-0.0134,-0.0116,-0.0171,-12.1350,1.6970,-100.8710,
2.014178,-0.0175,-0.0337,0.0856,-0.0006,-0.0250,-0.0305,-12.1350,1.6970,-100.8710,
2.018212,-0.0175,-0.0337,0.0856,-0.0006,-0.0250,-0.0305,-11.7940,1.5460,-100.9830,
2.034149,-0.0175,-0.0337,0.0856,-0.0006,-0.0250,-0.0305,-11.7940,1.5460,-100.9830,
2.035112,-0.0975,-0.0753,-0.1132,-0.0006,-0.0250,-0.0305,-11.7940,1.5460,-100.9830,
2.036035,-0.0975,-0.0753,-0.1132,-0.0079,-0.0134,-0.0293,-11.7940,1.5460,-100.9830,
2.054220,-0.0975,-0.0753,-0.1132,-0.0220,0.0287,-0.0147,-11.7940,1.5460,-100.9830,
2.074091,-0.0975,-0.0753,-0.1132,-0.0421,0.0495,0.0147,-11.7940,1.5460,-100.9830,
2.078464,-0.0975,-0.0753,-0.1132,-0.0421,0.0495,0.0147,-10.7390,1.4690,-100.2170,
2.093595,-0.0975,-0.0753,-0.1132,-0.0421,0.0495,0.0147,-10.7390,1.4690,-100.2170,
2.094352,-0.0522,-0.0532,0.1590,-0.0421,0.0495,0.0147,-10.7390,1.4690,-100.2170,
2.095210,-0.0522,-0.0532,0.1590,-0.0641,0.0171,0.0250,-10.7390,1.4690,-100.2170,
2.113979,-0.0522,-0.0532,0.1590,-0.0580,-0.0122,0.0183,-10.7390,1.4690,-100.2170,
2.134070,-0.0522,-0.0532,0.1590,-0.0073,-0.0452,0.0031,-10.7390,1.4690,-100.2170,
2.138828,-0.0522,-0.0532,0.1590,-0.0073,-0.0452,0.0031,-10.8400,1.8200,-101.2110,
2.154023,-0.0522,-0.0532,0.1590,-0.0073,-0.0452,0.0031,-10.8400,1.8200,-101.2110,
2.154794,0.0062,-0.0503,0.1171,-0.0073,-0.0452,0.0031,-10.8400,1.8200,-101.2110,
2.155600,0.0062,-0.0503,0.1171,0.0379,-0.0470,0.0000,-10.8400,1.8200,-101.2110,
2.173885,0.0062,-0.0503,0.1171,0.0538,0.0037,0.0159,-10.8400,1.8200,-101.2110,
2.194030,0.0062,-0.0503,0.1171,0.0275,0.0226,0.0232,-10.8400,1.8200,-101.2110,
2.198499,0.0062,-0.0503,0.1171,0.0275,0.0226,0.0232,-10.6060,1.9270,-102.3170,
2.214656,0.0062,-0.0503,0.1171,0.0275,0.0226,0.0232,-10.6060,1.9270,-102.3170,
2.215538,-0.0154,0.0338,-0.3641,0.0275,0.0226,0.0232,-10.6060,1.9270,-102.3170,
2.216517,-0.0154,0.0338,-0.3641,-0.0385,0.0031,0.0189,-10.6060,1.9270,-102.3170,
2.234349,-0.0154,0.0338,-0.3641,-0.0867,-0.0183,0.0116,-10.6060,1.9270,-102.3170,
2.254177,-0.0154,0.0338,-0.3641,-0.0855,-0.0110,0.0079,-10.6060,1.9270,-102.3170,
2.259901,-0.0154,0.0338,-0.3641,-0.0855,-0.0110,0.0079,-10.6950,2.3760,-102.5390,
2.274306,-0.0154,0.0338,-0.3641,-0.0855,-0.0110,0.0079,-10.6950,2.3760,-102.5390,
2.275041,-0.0238,-0.0457,0.0678,-0.0855,-0.0110,0.0079,-10.6950,2.3760,-102.5390,
2.275700,-0.0238,-0.0457,0.0678,-0.0538,0.0055,0.0092,-10.6950,2.3760,-102.5390,
2.293889,-0.0238,-0.0457,0.0678,-0.0403,0.0226,0.0140,-10.6950,2.3760,-102.5390,
2.314779,-0.0238,-0.0457,0.0678,-0.0593,0.0177,0.0122,-10.6950,2.3760,-102.5390,
2.318186,-0.0238,-0.0457,0.0678,-0.0593,0.0177,0.0122,-11.6220,2.3880,-101.0980,
2.335051,-0.0238,-0.0457,0.0678,-0.0593,0.0177,0.0122,-11.6220,2.3880,-101.0980,
2.336092,0.0455,-0.0141,0.1099,-0.0593,0.0177,0.0122,-11.6220,2.3880,-101.0980,
2.337106,0.0455,-0.0141,0.1099,-0.0635,0.0214,0.0086,-11.6220,2.3880,-101.0980,
2.354436,0.0455,-0.0141,0.1099,-0.0470,0.0006,0.0055,-11.6220,2.3880,-101.0980,
2.374769,0.0455,-0.0141,0.1099,-0.0147,0.0061,0.0104,-11.6220,2.3880,-101.0980,
2.379082,0.0455,-0.0141,0.1099,-0.0147,0.0061,0.0104,-11.0000,2.9080,-100.8830,
2.394079,0.0455,-0.0141,0.1099,-0.0147,0.0061,0.0104,-11.0000,2.9080,-100.8830,
2.395178,0.0348,0.0023,-0.0121,-0.0147,0.0061,0.0104,-11.0000,2.9080,-100.8830,
2.396225,0.0348,0.0023,-0.0121,0.0128,0.0140,0.0134,-11.0000,2.9080,-100.8830,
2.413821,0.0348,0.0023,-0.0121,0.0043,0.0134,0.0128,-11.0000,2.9080,-100.8830,
2.435049,0.0348,0.0023,-0.0121,-0.0287,0.0086,0.0110,-11.0000,2.9080,-100.8830,
2.438167,0.0348,0.0023,-0.0121,-0.0287,0.0086,0.0110,-11.2600,2.6880,-102.5370,
2.453882,0.0348,0.0023,-0.0121,-0.0287,0.0086,0.0110,-11.2600,2.6880,-102.5370,
2.454806,0.0182,-0.0077,0.0020,-0.0287,0.0086,0.0110,-11.2600,2.6880,-102.5370,
2.455640,0.0182,-0.0077,0.0020,-0.0458,0.0043,0.0092,-11.2600,2.6880,-102.5370,
2.474915,0.0182,-0.0077,0.0020,-0.0342,0.0061,0.0061,-11.2600,2.6880,-102.5370,
2.493481,0.0182,-0.0077,0.0020,-0.0177,-0.0018,0.0018,-11.2600,2.6880,-102.5370,
2.498110,0.0182,-0.0077,0.0020,-0.0177,-0.0018,0.0018,-10.7080,2.1900,-102.6490,
2.514069,0.0182,-0.0077,0.0020,-0.0177,-0.0018,0.0018,-10.7080,2.1900,-102.6490,
2.514821,0.0650,-0.0195,0.1561,-0.0177,-0.0018,0.0018,-10.7080,2.1900,-102.6490,
2.515531,0.0650,-0.0195,0.1561,-0.0110,-0.0018,-0.0073,-10.7080,2.1900,-102.6490,
2.533919,0.0650,-0.0195,0.1561,0.0140,0.0086,-0.0037,-10.7080,2.1900,-102.6490,
2.553895,0.0650,-0.0195,0.1561,0.0318,-0.0012,-0.0037,-10.7080,2.1900,-102.6490,
2.558786,0.0650,-0.0195,0.1561,0.0318,-0.0012,-0.0037,-10.6950,2.4620,-103.3120,
2.573401,0.0650,-0.0195,0.1561,0.0318,-0.0012,-0.0037,-10.6950,2.4620,-103.3120,
2.574357,0.0015,0.0026,-0.1107,0.0318,-0.0012,-0.0037,-10.6950,2.4620,-103.3120,
2.575287,0.0015,0.0026,-0.1107,0.0220,-0.0037,-0.0055,-10.6950,2.4620,-103.3120,
2.593749,0.0015,0.0026,-0.1107,0.0018,-0.0006,-0.0037,-10.6950,2.4620,-103.3120,
2.613559,0.0015,0.0026,-0.1107,-0.0116,0.0012,-0.0037,-10.6950,2.4620,-103.3120,
2.617679,0.0015,0.0026,-0.1107,-0.0116,0.0012,-0.0037,-11.0340,2.6150,-102.9790,
2.635511,0.0015,0.0026,-0.1107,-0.0116,0.0012,-0.0037,-11.0340,2.6150,-102.9790,
2.636445,0.0272,-0.0304,0.0046,-0.0116,0.0012,-0.0037,-11.0340,2.6150,-102.9790,
2.637239,0.0272,-0.0304,0.0046,-0.0086,0.0018,-0.0086,-11.0340,2.6150,-102.9790,
2.653427,0.0272,-0.0304,0.0046,-0.0024,-0.0104,-0.0092,-11.0340,2.6150,-102.9790,
2.675687,0.0272,-0.0304,0.0046,0.0018,-0.0024,-0.0079,-11.0340,2.6150,-102.9790,
2.678453,0.0272,-0.0304,0.0046,0.0018,-0.0024,-0.0079,-11.0320,2.6170,-102.7590,
2.693614,0.0272,-0.0304,0.0046,0.0018,-0.0024,-0.0079,-11.0320,2.6170,-102.7590,
2.694478,0.0040,-0.0158,0.0303,0.0018,-0.0024,-0.0079,-11.0320,2.6170,-102.7590,
2.695445,0.0040,-0.0158,0.0303,0.0018,-0.0018,-0.0073,-11.0320,2.6170,-102.7590,
2.714681,0.0040,-0.0158,0.0303,0.0018,-0.0037,-0.0073,-11.0320,2.6170,-102.7590,
2.734089,0.0040,-0.0158,0.0303,-0.0006,0.0000,-0.0018,-11.0320,2.6170,-102.7590,
2.738425,0.0040,-0.0158,0.0303,-0.0006,0.0000,-0.0018,-11.6970,3.1090,-101.9840,
2.755755,0.0040,-0.0158,0.0303,-0.0006,0.0000,-0.0018,-11.6970,3.1090,-101.9840,
2.756642,0.0738,-0.0011,0.0038,-0.0006,0.0000,-0.0018,-11.6970,3.1090,-101.9840,
2.757376,0.0738,-0.0011,0.0038,0.0086,-0.0104,-0.0079,-11.6970,3.1090,-101.9840,
2.774047,0.0738,-0.0011,0.0038,0.0134,-0.0263,-0.0153,-11.6970,3.1090,-101.9840,
2.793876,0.0738,-0.0011,0.0038,0.0073,-0.0055,-0.0086,-11.6970,3.1090,-101.9840,
2.798304,0.0738,-0.0011,0.0038,0.0073,-0.0055,-0.0086,-11.1590,3.9100,-99.7820,
2.813889,0.0738,-0.0011,0.0038,0.0073,-0.0055,-0.0086,-11.1590,3.9100,-99.7820,
2.815088,-0.0477,-0.0302,-0.0936,0.0073,-0.0055,-0.0086,-11.1590,3.9100,-99.7820,
2.816434,-0.0477,-0.0302,-0.0936,-0.0037,-0.0018,-0.0043,-11.1590,3.9100,-99.7820,
2.834632,-0.0477,-0.0302,-0.0936,-0.0153,-0.0086,0.0000,-11.1590,3.9100,-99.7820,
2.853644,-0.0477,-0.0302,-0.0936,-0.0183,-0.0177,-0.0043,-11.1590,3.9100,-99.7820,
2.858670,-0.0477,-0.0302,-0.0936,-0.0183,-0.0177,-0.0043,-11.1580,2.2530,-100.5480,
2.874111,-0.0477,-0.0302,-0.0936,-0.0183,-0.0177,-0.0043,-11.1580,2.2530,-100.5480,
2.875071,-0.0307,-0.0106,0.0795,-0.0183,-0.0177,-0.0043,-11.1580,2.2530,-100.5480,
2.876378,-0.0307,-0.0106,0.0795,-0.0098,-0.0312,-0.0073,-11.1580,2.2530,-100.5480,
2.894477,-0.0307,-0.0106,0.0795,0.0031,-0.0281,-0.0067,-11.1580,2.2530,-100.5480,
2.914234,-0.0307,-0.0106,0.0795,0.0116,-0.0055,-0.0024,-11.1580,2.2530,-100.5480,
2.918942,-0.0307,-0.0106,0.0795,0.0116,-0.0055,-0.0024,-12.2620,1.5040,-100.4270,
2.934558,-0.0307,-0.0106,0.0795,0.0116,-0.0055,-0.0024,-12.2620,1.5040,-100.4270,
2.935327,-0.0638,-0.0436,-0.0430,0.0116,-0.0055,-0.0024,-12.2620,1.5040,-100.4270,
2.936356,-0.0638,-0.0436,-0.0430,0.0171,0.0140,0.0055,-12.2620,1.5040,-100.4270,
2.954247,-0.0638,-0.0436,-0.0430,0.0043,0.0018,0.0116,-12.2620,1.5040,-100.4270,
2.973303,-0.0638,-0.0436,-0.0430,0.0031,-0.0104,0.0037,-12.2620,1.5040,-100.4270,
2.979400,-0.0638,-0.0436,-0.0430,0.0031,-0.0104,0.0037,-11.4480,1.4860,-101.2060,
2.994018,-0.0638,-0.0436,-0.0430,0.0031,-0.0104,0.0037,-11.4480,1.4860,-101.2060,
2.995058,-0.0272,-0.0058,0.0750,0.0031,-0.0104,0.0037,-11.4480,1.4860,-101.2060,
2.995934,-0.0272,-0.0058,0.0750,0.0140,0.0024,0.0018,-11.4480,1.4860,-101.2060,
3.014052,-0.0272,-0.0058,0.0750,0.0177,-0.0018,0.0055,-11.4480,1.4860,-101.2060,
3.034535,-0.0272,-0.0058,0.0750,0.0104,0.0177,0.0104,-11.4480,1.4860,-101.2060,
3.037916,-0.0272,-0.0058,0.0750,0.0104,0.0177,0.0104,-10.8940,1.1630,-102.6430,
3.053728,-0.0272,-0.0058,0.0750,0.0104,0.0177,0.0104,-10.8940,1.1630,-102.6430,
3.054596,-0.0275,0.0430,-0.0141,0.0104,0.0177,0.0104,-10.8940,1.1630,-102.6430,
3.055418,-0.0275,0.0430,-0.0141,0.0140,0.0147,0.0128,-10.8940,1.1630,-102.6430,
3.074038,-0.0275,0.0430,-0.0141,0.0159,0.0079,0.0098,-10.8940,1.1630,-102.6430,
3.093849,-0.0275,0.0430,-0.0141,0.0037,0.0012,0.0086,-10.8940,1.1630,-102.6430,
3.097857,-0.0275,0.0430,-0.0141,0.0037,0.0012,0.0086,-12.6300,1.4560,-102.3020,
3.114529,-0.0275,0.0430,-0.0141,0.0037,0.0012,0.0086,-12.6300,1.4560,-102.3020,
3.115378,0.0213,-0.0115,-0.0725,0.0037,0.0012,0.0086,-12.6300,1.4560,-102.3020,
3.116433,0.0213,-0.0115,-0.0725,-0.0134,-0.0122,0.0037,-12.6300,1.4560,-102.3020,
3.133851,0.0213,-0.0115,-0.0725,-0.0140,-0.0024,0.0037,-12.6300,1.4560,-102.3020,
3.154305,0.0213,-0.0115,-0.0725,0.0031,0.0055,0.0086,-12.6300,1.4560,-102.3020,
3.159118,0.0213,-0.0115,-0.0725,0.0031,0.0055,0.0086,-11.7910,1.6350,-101.4250,
3.174777,0.0213,-0.0115,-0.0725,0.0031,0.0055,0.0086,-11.7910,1.6350,-101.4250,
3.175674,-0.0169,0.0075,0.0558,0.0031,0.0055,0.0086,-11.7910,1.6350,-101.4250,
3.176643,-0.0169,0.0075,0.0558,0.0183,0.0214,0.0147,-11.7910,1.6350,-101.4250,
3.193778,-0.0169,0.0075,0.0558,0.0104,-0.0018,0.0092,-11.7910,1.6350,-101.4250,
3.213664,-0.0169,0.0075,0.0558,-0.0031,-0.0116,0.0000,-11.7910,1.6350,-101.4250,
3.218290,-0.0169,0.0075,0.0558,-0.0031,-0.0116,0.0000,-10.3140,2.6100,-100.5550,
3.233785,-0.0169,0.0075,0.0558,-0.0031,-0.0116,0.0000,-10.3140,2.6100,-100.5550,
3.234881,-0.0042,-0.0400,0.0711,-0.0031,-0.0116,0.0000,-10.3140,2.6100,-100.5550,
3.235816,-0.0042,-0.0400,0.0711,0.0073,0.0098,0.0049,-10.3140,2.6100,-100.5550,
3.254197,-0.0042,-0.0400,0.0711,0.0287,0.0220,0.0073,-10.3140,2.6100,-100.5550,
3.274380,-0.0042,-0.0400,0.0711,0.0275,0.0281,0.0092,-10.3140,2.6100,-100.5550,
3.278503,-0.0042,-0.0400,0.0711,0.0275,0.0281,0.0092,-10.5180,3.2230,-101.9920,
3.294007,-0.0042,-0.0400,0.0711,0.0275,0.0281,0.0092,-10.5180,3.2230,-101.9920,
3.294857,0.0419,0.0361,-0.1032,0.0275,0.0281,0.0092,-10.5180,3.2230,-101.9920,
3.295724,0.0419,0.0361,-0.1032,0.0104,0.0104,0.0049,-10.5180,3.2230,-101.9920,
3.313688,0.0419,0.0361,-0.1032,-0.0012,0.0055,0.0006,-10.5180,3.2230,-101.9920,
3.333483,0.0419,0.0361,-0.1032,-0.0061,-0.0079,-0.0006,-10.5180,3.2230,-101.9920,
3.339106,0.0419,0.0361,-0.1032,-0.0061,-0.0079,-0.0006,-10.9720,3.4540,-102.1000,
3.354158,0.0419,0.0361,-0.1032,-0.0061,-0.0079,-0.0006,-10.9720,3.4540,-102.1000,
3.356135,0.0234,0.0276,-0.0431,-0.0061,-0.0079,-0.0006,-10.9720,3.4540,-102.1000,
3.357140,0.0234,0.0276,-0.0431,-0.0079,0.0098,0.0012,-10.9720,3.4540,-102.1000,
3.373432,0.0234,0.0276,-0.0431,0.0006,-0.0116,0.0018,-10.9720,3.4540,-102.1000,
3.393882,0.0234,0.0276,-0.0431,0.0159,-0.0086,0.0006,-10.9720,3.4540,-102.1000,
3.398173,0.0234,0.0276,-0.0431,0.0159,-0.0086,0.0006,-11.6740,3.3900,-101.4330,
3.414872,0.0234,0.0276,-0.0431,0.0159,-0.0086,0.0006,-11.6740,3.3900,-101.4330,
3.416819,-0.1131,0.0064,0.0771,0.0159,-0.0086,0.0006,-11.6740,3.3900,-101.4330,
3.417815,-0.1131,0.0064,0.0771,0.0281,-0.0147,0.0043,-11.6740,3.3900,-101.4330,
3.435080,-0.1131,0.0064,0.0771,0.0562,0.0043,0.0165,-11.6740,3.3900,-101.4330,
3.453825,-0.1131,0.0064,0.0771,0.0702,-0.0122,0.0134,-11.6740,3.3900,-101.4330,
3.459313,-0.1131,0.0064,0.0771,0.0702,-0.0122,0.0134,-11.1070,3.0800,-101.1040,
3.474144,-0.1131,0.0064,0.0771,0.0702,-0.0122,0.0134,-11.1070,3.0800,-101.1040,
3.475892,0.0064,0.1162,0.0691,0.0702,-0.0122,0.0134,-11.1070,3.0800,-101.1040,
3.477067,0.0064,0.1162,0.0691,0.0819,-0.0544,0.0250,-11.1070,3.0800,-101.1040,
3.493914,0.0064,0.1162,0.0691,0.1283,-0.0513,0.0324,-11.1070,3.0800,-101.1040,
3.514127,0.0064,0.1162,0.0691,0.1692,-0.0715,0.0208,-11.1070,3.0800,-101.1040,
3.518671,0.0064,0.1162,0.0691,0.1692,-0.0715,0.0208,-10.5180,3.1360,-101.2190,
3.534013,0.0064,0.1162,0.0691,0.1692,-0.0715,0.0208,-10.5180,3.1360,-101.2190,
3.536185,0.0066,0.2527,-0.2951,0.1692,-0.0715,0.0208,-10.5180,3.1360,-101.2190,
3.537162,0.0066,0.2527,-0.2951,0.1619,-0.1319,-0.0043,-10.5180,3.1360,-101.2190,
3.553987,0.0066,0.2527,-0.2951,0.0550,-0.1741,-0.0281,-10.5180,3.1360,-101.2190,
3.574582,0.0066,0.2527,-0.2951,-0.0611,-0.1173,0.0189,-10.5180,3.1360,-101.2190,
3.578891,0.0066,0.2527,-0.2951,-0.0611,-0.1173,0.0189,-10.6610,2.9280,-102.8730,
3.595573,0.0066,0.2527,-0.2951,-0.0611,-0.1173,0.0189,-10.6610,2.9280,-102.8730,
3.597268,-0.5226,0.2152,0.2473,-0.0611,-0.1173,0.0189,-10.6610,2.9280,-102.8730,
3.598244,-0.5226,0.2152,0.2473,-0.1161,-0.0049,0.1100,-10.6610,2.9280,-102.8730,
3.613637,-0.5226,0.2152,0.2473,-0.1032,0.0538,0.1057,-10.6610,2.9280,-102.8730,
3.634468,-0.5226,0.2152,0.2473,-0.0825,0.0458,0.1594,-10.6610,2.9280,-102.8730,
3.638855,-0.5226,0.2152,0.2473,-0.0825,0.0458,0.1594,-10.9230,2.5340,-103.0900,
3.654364,-0.5226,0.2152,0.2473,-0.0825,0.0458,0.1594,-10.9230,2.5340,-103.0900,
3.656453,0.2257,0.1435,0.5752,-0.0825,0.0458,0.1594,-10.9230,2.5340,-103.0900,
3.657913,0.2257,0.1435,0.5752,0.0177,0.0788,0.0941,-10.9230,2.5340,-103.0900,
3.674308,0.2257,0.1435,0.5752,0.1228,-0.0672,-0.0049,-10.9230,2.5340,-103.0900,
3.694457,0.2257,0.1435,0.5752,0.2425,-0.1631,-0.0550,-10.9230,2.5340,-103.0900,
3.699007,0.2257,0.1435,0.5752,0.2425,-0.1631,-0.0550,-11.6540,1.8370,-100.5430,
3.714596,0.2257,0.1435,0.5752,0.2425,-0.1631,-0.0550,-11.6540,1.8370,-100.5430,
3.716887,0.1490,0.3036,0.2735,0.2425,-0.1631,-0.0550,-11.6540,1.8370,-100.5430,
3.717944,0.1490,0.3036,0.2735,0.3464,-0.0983,-0.0599,-11.6540,1.8370,-100.5430,
3.735055,0.1490,0.3036,0.2735,0.3592,-0.0391,-0.0916,-11.6540,1.8370,-100.5430,
3.754017,0.1490,0.3036,0.2735,0.3042,-0.0281,-0.1289,-11.6540,1.8370,-100.5430,
3.759278,0.1490,0.3036,0.2735,0.3042,-0.0281,-0.1289,-12.1540,1.1600,-98.5500,
3.774890,0.1490,0.3036,0.2735,0.3042,-0.0281,-0.1289,-12.1540,1.1600,-98.5500,
3.776296,-0.1316,0.0001,-0.2445,0.3042,-0.0281,-0.1289,-12.1540,1.1600,-98.5500,
3.777262,-0.1316,0.0001,-0.2445,0.2370,-0.0104,-0.1411,-12.1540,1.1600,-98.5500,
3.794150,-0.1316,0.0001,-0.2445,0.1912,0.0788,-0.1038,-12.1540,1.1600,-98.5500,
3.815247,-0.1316,0.0001,-0.2445,0.1600,0.1368,-0.0513,-12.1540,1.1600,-98.5500,
3.818288,-0.1316,0.0001,-0.2445,0.1600,0.1368,-0.0513,-10.9600,1.5470,-99.1120,
3.834644,-0.1316,0.0001,-0.2445,0.1600,0.1368,-0.0513,-10.9600,1.5470,-99.1120,
3.836345,-0.2607,-0.1171,-0.2446,0.1600,0.1368,-0.0513,-10.9600,1.5470,-99.1120,
3.837461,-0.2607,-0.1171,-0.2446,0.1381,0.1582,-0.0220,-10.9600,1.5470,-99.1120,
3.854272,-0.2607,-0.1171,-0.2446,0.1264,0.1283,-0.0373,-10.9600,1.5470,-99.1120,
3.876147,-0.2607,-0.1171,-0.2446,0.1399,0.0904,-0.0580,-10.9600,1.5470,-99.1120,
3.878399,-0.2607,-0.1171,-0.2446,0.1399,0.0904,-0.0580,-10.8560,1.6310,-101.7620,
3.894602,-0.2607,-0.1171,-0.2446,0.1399,0.0904,-0.0580,-10.8560,1.6310,-101.7620,
3.895907,-0.2553,-0.0479,-0.2934,0.1399,0.0904,-0.0580,-10.8560,1.6310,-101.7620,
3.896886,-0.2553,-0.0479,-0.2934,0.1692,0.0831,-0.0635,-10.8560,1.6310,-101.7620,
3.915732,-0.2553,-0.0479,-0.2934,0.1839,0.0971,-0.0586,-10.8560,1.6310,-101.7620,
3.934782,-0.2553,-0.0479,-0.2934,0.1747,0.0880,-0.0782,-10.8560,1.6310,-101.7620,
3.939446,-0.2553,-0.0479,-0.2934,0.1747,0.0880,-0.0782,-9.7170,1.1880,-102.2100,
3.955060,-0.2553,-0.0479,-0.2934,0.1747,0.0880,-0.0782,-9.7170,1.1880,-102.2100,
3.956655,-0.1377,0.1406,-0.4322,0.1747,0.0880,-0.0782,-9.7170,1.1880,-102.2100,
3.957581,-0.1377,0.1406,-0.4322,0.1588,0.0428,-0.1026,-9.7170,1.1880,-102.2100,
3.975529,-0.1377,0.1406,-0.4322,0.1252,-0.0098,-0.1283,-9.7170,1.1880,-102.2100,
3.995131,-0.1377,0.1406,-0.4322,0.0825,-0.0336,-0.1472,-9.7170,1.1880,-102.2100,
3.999825,-0.1377,0.1406,-0.4322,0.0825,-0.0336,-0.1472,-8.8250,0.3650,-100.8870,
4.014751,-0.1377,0.1406,-0.4322,0.0825,-0.0336,-0.1472,-8.8250,0.3650,-100.8870,
4.016326,-0.0901,0.1847,-0.4383,0.0825,-0.0336,-0.1472,-8.8250,0.3650,-100.8870,
4.017406,-0.0901,0.1847,-0.4383,0.0501,-0.0318,-0.1368,-8.8250,0.3650,-100.8870,
4.034432,-0.0901,0.1847,-0.4383,0.0073,-0.0043,-0.1228,-8.8250,0.3650,-100.8870,
4.054007,-0.0901,0.1847,-0.4383,-0.0501,-0.0049,-0.1454,-8.8250,0.3650,-100.8870,
4.058736,-0.0901,0.1847,-0.4383,-0.0501,-0.0049,-0.1454,-10.6740,-1.0060,-100.8690,
4.074679,-0.0901,0.1847,-0.4383,-0.0501,-0.0049,-0.1454,-10.6740,-1.0060,-100.8690,
4.076354,-0.0901,0.1847,-0.4383,-0.1271,-0.0489,-0.1888,-10.6740,-1.0060,-100.8690,
4.077138,0.0706,0.0305,-0.5171,-0.1271,-0.0489,-0.1888,-10.6740,-1.0060,-100.8690,
4.093683,0.0706,0.0305,-0.5171,-0.1924,-0.1484,-0.2077,-10.6740,-1.0060,-100.8690,
4.117392,0.0706,0.0305,-0.5171,-0.2205,-0.1619,-0.2004,-10.6740,-1.0060,-100.8690,
4.119459,0.0706,0.0305,-0.5171,-0.2205,-0.1619,-0.2004,-11.0410,-1.3130,-100.2030,
4.134031,0.0706,0.0305,-0.5171,-0.2205,-0.1619,-0.2004,-11.0410,-1.3130,-100.2030,
4.135417,0.2418,-0.3046,-0.0233,-0.2205,-0.1619,-0.2004,-11.0410,-1.3130,-100.2030,
4.136519,0.2418,-0.3046,-0.0233,-0.2053,-0.1307,-0.1381,-11.0410,-1.3130,-100.2030,
4.155851,0.2418,-0.3046,-0.0233,-0.1503,-0.1191,-0.0696,-11.0410,-1.3130,-100.2030,
4.175903,0.2418,-0.3046,-0.0233,-0.0476,-0.1863,-0.0214,-11.0410,-1.3130,-100.2030,
4.178639,0.2418,-0.3046,-0.0233,-0.0476,-0.1863,-0.0214,-11.7050,-0.6470,-100.8640,
4.193848,0.2418,-0.3046,-0.0233,-0.0476,-0.1863,-0.0214,-11.7050,-0.6470,-100.8640,
4.195213,0.6071,-0.0334,0.3180,-0.0476,-0.1863,-0.0214,-11.7050,-0.6470,-100.8640,
4.196219,0.6071,-0.0334,0.3180,0.0550,-0.2480,-0.0171,-11.7050,-0.6470,-100.8640,
4.214721,0.6071,-0.0334,0.3180,0.0947,-0.2560,-0.0715,-11.7050,-0.6470,-100.8640,
4.235505,0.6071,-0.0334,0.3180,0.0586,-0.2291,-0.1185,-11.7050,-0.6470,-100.8640,
4.239828,0.6071,-0.0334,0.3180,0.0586,-0.2291,-0.1185,-12.8540,-0.2140,-101.7410,
4.254789,0.6071,-0.0334,0.3180,0.0586,-0.2291,-0.1185,-12.8540,-0.2140,-101.7410,
4.256203,0.1875,0.1313,-0.0615,0.0586,-0.2291,-0.1185,-12.8540,-0.2140,-101.7410,
4.257156,0.1875,0.1313,-0.0615,0.0018,-0.1545,-0.1216,-12.8540,-0.2140,-101.7410,
4.274411,0.1875,0.1313,-0.0615,-0.0733,-0.0415,-0.0971,-12.8540,-0.2140,-101.7410,
4.294645,0.1875,0.1313,-0.0615,-0.1680,0.0428,-0.0782,-12.8540,-0.2140,-101.7410,
4.300642,0.1875,0.1313,-0.0615,-0.1680,0.0428,-0.0782,-12.2910,-0.5280,-102.0750,
4.314195,0.1875,0.1313,-0.0615,-0.1680,0.0428,-0.0782,-12.2910,-0.5280,-102.0750,
4.315623,0.1247,0.3255,-0.1700,-0.1680,0.0428,-0.0782,-12.2910,-0.5280,-102.0750,
4.316723,0.1247,0.3255,-0.1700,-0.2712,0.0189,-0.0690,-12.2910,-0.5280,-102.0750,
4.333894,0.1247,0.3255,-0.1700,-0.3201,-0.0739,-0.1014,-12.2910,-0.5280,-102.0750,
4.354397,0.1247,0.3255,-0.1700,-0.2822,-0.0916,-0.1185,-12.2910,-0.5280,-102.0750,
4.358845,0.1247,0.3255,-0.1700,-0.2822,-0.0916,-0.1185,-11.1200,-0.4220,-103.0770,
4.375047,0.1247,0.3255,-0.1700,-0.2822,-0.0916,-0.1185,-11.1200,-0.4220,-103.0770,
4.376567,-0.0241,0.0464,0.5742,-0.2822,-0.0916,-0.1185,-11.1200,-0.4220,-103.0770,
4.377675,-0.0241,0.0464,0.5742,-0.1851,-0.0464,-0.0733,-11.1200,-0.4220,-103.0770,
4.394117,-0.0241,0.0464,0.5742,-0.0806,-0.0043,-0.0031,-11.1200,-0.4220,-103.0770,
4.416986,-0.0241,0.0464,0.5742,-0.0092,-0.0513,-0.0079,-11.1200,-0.4220,-103.0770,
4.417717,-0.0241,0.0464,0.5742,-0.0092,-0.0513,-0.0079,-12.1300,0.2150,-102.8520,
4.433243,-0.0241,0.0464,0.5742,-0.0092,-0.0513,-0.0079,-12.1300,0.2150,-102.8520,
4.433622,0.1708,0.2637,0.3085,-0.0092,-0.0513,-0.0079,-12.1300,0.2150,-102.8520,
4.433975,0.1708,0.2637,0.3085,0.0617,-0.0226,-0.0098,-12.1300,0.2150,-102.8520,
4.453266,0.1708,0.2637,0.3085,0.1106,0.0342,-0.0018,-12.1300,0.2150,-102.8520,
4.474406,0.1708,0.2637,0.3085,0.1240,0.0672,0.0195,-12.1300,0.2150,-102.8520,
4.478353,0.1708,0.2637,0.3085,0.1240,0.0672,0.0195,-12.5370,-0.6470,-102.5140,
4.495339,0.1708,0.2637,0.3085,0.1240,0.0672,0.0195,-12.5370,-0.6470,-102.5140,
4.496907,-0.1100,0.0829,-0.2622,0.1240,0.0672,0.0195,-12.5370,-0.6470,-102.5140,
4.497846,-0.1100,0.0829,-0.2622,0.1155,0.0519,0.0586,-12.5370,-0.6470,-102.5140,
4.514354,-0.1100,0.0829,-0.2622,0.0666,-0.0153,0.0574,-12.5370,-0.6470,-102.5140,
4.533450,-0.1100,0.0829,-0.2622,0.0110,-0.0403,0.0409,-12.5370,-0.6470,-102.5140,
4.537375,-0.1100,0.0829,-0.2622,0.0110,-0.0403,0.0409,-11.5920,-0.5540,-102.3000,
4.553668,-0.1100,0.0829,-0.2622,0.0110,-0.0403,0.0409,-11.5920,-0.5540,-102.3000,
4.554785,0.0757,-0.0011,-0.3551,0.0110,-0.0403,0.0409,-11.5920,-0.5540,-102.3000,
4.555450,0.0757,-0.0011,-0.3551,-0.0342,-0.0055,0.0599,-11.5920,-0.5540,-102.3000,
4.574224,0.0757,-0.0011,-0.3551,-0.0971,0.0684,0.0757,-11.5920,-0.5540,-102.3000,
4.594530,0.0757,-0.0011,-0.3551,-0.1344,0.1387,0.1026,-11.5920,-0.5540,-102.3000,
4.599324,0.0757,-0.0011,-0.3551,-0.1344,0.1387,0.1026,-12.6990,0.2650,-100.9710,
4.615453,0.0757,-0.0011,-0.3551,-0.1344,0.1387,0.1026,-12.6990,0.2650,-100.9710,
4.617149,0.0725,-0.0329,-0.3702,-0.1344,0.1387,0.1026,-12.6990,0.2650,-100.9710,
4.618271,0.0725,-0.0329,-0.3702,-0.1356,0.1405,0.1191,-12.6990,0.2650,-100.9710,
4.634431,0.0725,-0.0329,-0.3702,-0.1246,0.1081,0.1155,-12.6990,0.2650,-100.9710,
4.654632,0.0725,-0.0329,-0.3702,-0.1313,0.1051,0.0898,-12.6990,0.2650,-100.9710,
4.662565,0.0725,-0.0329,-0.3702,-0.1313,0.1051,0.0898,-13.2840,0.1260,-99.5320,
4.675450,0.0725,-0.0329,-0.3702,-0.1313,0.1051,0.0898,-13.2840,0.1260,-99.5320,
4.676960,0.0921,0.0073,-0.4323,-0.1313,0.1051,0.0898,-13.2840,0.1260,-99.5320,
4.678018,0.0921,0.0073,-0.4323,-0.1472,0.0800,0.0794,-13.2840,0.1260,-99.5320,
4.693549,0.0921,0.0073,-0.4323,-0.1466,0.0470,0.1100,-13.2840,0.1260,-99.5320,
4.714584,0.0921,0.0073,-0.4323,-0.1576,-0.0134,0.1142,-13.2840,0.1260,-99.5320,
4.718653,0.0921,0.0073,-0.4323,-0.1576,-0.0134,0.1142,-12.5590,0.5570,-100.4220,
4.734145,0.0921,0.0073,-0.4323,-0.1576,-0.0134,0.1142,-12.5590,0.5570,-100.4220,
4.735404,0.3346,-0.2600,0.2078,-0.1576,-0.0134,0.1142,-12.5590,0.5570,-100.4220,
4.736440,0.3346,-0.2600,0.2078,-0.1723,-0.0134,0.0996,-12.5590,0.5570,-100.4220,
4.753785,0.3346,-0.2600,0.2078,-0.1662,0.0305,0.1167,-12.5590,0.5570,-100.4220,
4.774287,0.3346,-0.2600,0.2078,-0.1051,0.1362,0.1839,-12.5590,0.5570,-100.4220,
4.778789,0.3346,-0.2600,0.2078,-0.1051,0.1362,0.1839,-12.3020,0.9460,-100.8670,
4.794539,0.3346,-0.2600,0.2078,-0.1051,0.1362,0.1839,-12.3020,0.9460,-100.8670,
4.795611,0.0174,-0.2281,0.8882,-0.1051,0.1362,0.1839,-12.3020,0.9460,-100.8670,
4.796491,0.0174,-0.2281,0.8882,0.0330,0.1808,0.2779,-12.3020,0.9460,-100.8670,
4.816092,0.0174,-0.2281,0.8882,0.1283,0.1185,0.2590,-12.3020,0.9460,-100.8670,
4.834466,0.0174,-0.2281,0.8882,0.1747,0.1069,0.2046,-12.3020,0.9460,-100.8670,
4.838844,0.0174,-0.2281,0.8882,0.1747,0.1069,0.2046,-12.1490,1.5100,-101.0910,
4.854711,0.0174,-0.2281,0.8882,0.1747,0.1069,0.2046,-12.1490,1.5100,-101.0910,
4.856159,-0.1677,0.2241,0.3285,0.1747,0.1069,0.2046,-12.1490,1.5100,-101.0910,
4.857251,-0.1677,0.2241,0.3285,0.1564,0.1484,0.1680,-12.1490,1.5100,-101.0910,
4.875555,-0.1677,0.2241,0.3285,0.0464,0.1185,0.1075,-12.1490,1.5100,-101.0910,
4.893835,-0.1677,0.2241,0.3285,-0.2053,-0.0776,-0.0910,-12.1490,1.5100,-101.0910,
4.900742,-0.1677,0.2241,0.3285,-0.2053,-0.0776,-0.0910,-12.3810,1.6640,-102.1940,
4.915212,-0.1677,0.2241,0.3285,-0.2053,-0.0776,-0.0910,-12.3810,1.6640,-102.1940,
4.917215,0.1726,-0.6004,0.5365,-0.2053,-0.0776,-0.0910,-12.3810,1.6640,-102.1940,
4.918531,0.1726,-0.6004,0.5365,-0.4068,-0.1949,-0.2474,-12.3810,1.6640,-102.1940,
4.934511,0.1726,-0.6004,0.5365,-0.4557,-0.0696,-0.2462,-12.3810,1.6640,-102.1940,
4.953956,0.1726,-0.6004,0.5365,-0.3745,0.1680,-0.1283,-12.3810,1.6640,-102.1940,
4.958856,0.1726,-0.6004,0.5365,-0.3745,0.1680,-0.1283,-11.5950,1.1860,-102.6390,
4.975248,0.1726,-0.6004,0.5365,-0.3745,0.1680,-0.1283,-11.5950,1.1860,-102.6390,
4.977068,-0.4817,-1.0197,0.9991,-0.3745,0.1680,-0.1283,-11.5950,1.1860,-102.6390,
4.978215,-0.4817,-1.0197,0.9991,-0.2309,0.2639,0.0000,-11.5950,1.1860,-102.6390,
4.994013,-0.4817,-1.0197,0.9991,-0.1081,0.2236,0.0024,-11.5950,1.1860,-102.6390,
5.014891,-0.4817,-1.0197,0.9991,-0.0055,0.0990,0.0073,-11.5950,1.1860,-102.6390,
5.018506,-0.4817,-1.0197,0.9991,-0.0055,0.0990,0.0073,-11.0040,1.3320,-103.1950,
5.034725,-0.4817,-1.0197,0.9991,-0.0055,0.0990,0.0073,-11.0040,1.3320,-103.1950,
5.036258,-0.9282,-1.1937,0.5418,-0.0055,0.0990,0.0073,-11.0040,1.3320,-103.1950,
5.037396,-0.9282,-1.1937,0.5418,0.0983,-0.0452,0.0727,-11.0040,1.3320,-103.1950,
5.053947,-0.9282,-1.1937,0.5418,0.1991,-0.0226,0.1698,-11.0040,1.3320,-103.1950,
5.075186,-0.9282,-1.1937,0.5418,0.2834,0.0507,0.2346,-11.0040,1.3320,-103.1950,
5.078507,-0.9282,-1.1937,0.5418,0.2834,0.0507,0.2346,-11.4010,2.2220,-101.5400,
5.093866,-0.9282,-1.1937,0.5418,0.2834,0.0507,0.2346,-11.4010,2.2220,-101.5400,
5.095155,-0.6779,-0.9676,-0.1964,0.2834,0.0507,0.2346,-11.4010,2.2220,-101.5400,
5.096490,-0.6779,-0.9676,-0.1964,0.3250,0.0861,0.2242,-11.4010,2.2220,-101.5400,
5.115153,-0.6779,-0.9676,-0.1964,0.3146,0.0635,0.1643,-11.4010,2.2220,-101.5400,
5.133805,-0.6779,-0.9676,-0.1964,0.2486,-0.0104,0.0831,-11.4010,2.2220,-101.5400,
5.138958,-0.6779,-0.9676,-0.1964,0.2486,-0.0104,0.0831,-10.6790,2.3920,-100.4420,
5.153998,-0.6779,-0.9676,-0.1964,0.2486,-0.0104,0.0831,-10.6790,2.3920,-100.4420,
5.155247,0.0516,-0.0061,-1.0280,0.2486,-0.0104,0.0831,-10.6790,2.3920,-100.4420,
5.156129,0.0516,-0.0061,-1.0280,0.1216,-0.1057,-0.0324,-10.6790,2.3920,-100.4420,
5.174641,0.0516,-0.0061,-1.0280,-0.0855,-0.2364,-0.1625,-10.6790,2.3920,-100.4420,
5.193991,0.0516,-0.0061,-1.0280,-0.2443,-0.2083,-0.2175,-10.6790,2.3920,-100.4420,
5.198143,0.0516,-0.0061,-1.0280,-0.2443,-0.2083,-0.2175,-10.3710,1.7770,-100.7720,
5.213752,0.0516,-0.0061,-1.0280,-0.2443,-0.2083,-0.2175,-10.3710,1.7770,-100.7720,
5.215225,-0.1047,-0.3322,-0.2569,-0.2443,-0.2083,-0.2175,-10.3710,1.7770,-100.7720,
5.216418,-0.1047,-0.3322,-0.2569,-0.3396,-0.1210,-0.2138,-10.3710,1.7770,-100.7720,
5.234575,-0.1047,-0.3322,-0.2569,-0.3567,-0.0208,-0.1790,-10.3710,1.7770,-100.7720,
5.254667,-0.1047,-0.3322,-0.2569,-0.3067,0.0354,-0.1313,-10.3710,1.7770,-100.7720,
5.259078,-0.1047,-0.3322,-0.2569,-0.3067,0.0354,-0.1313,-10.5100,1.5710,-101.9850,
5.277476,-0.1047,-0.3322,-0.2569,-0.3067,0.0354,-0.1313,-10.5100,1.5710,-101.9850,
5.278802,-0.1000,-0.0896,0.2679,-0.3067,0.0354,-0.1313,-10.5100,1.5710,-101.9850,
5.280032,-0.1000,-0.0896,0.2679,-0.1991,0.0544,-0.0745,-10.5100,1.5710,-101.9850,
5.294206,-0.1000,-0.0896,0.2679,-0.0690,0.0110,-0.0269,-10.5100,1.5710,-101.9850,
5.314732,-0.1000,-0.0896,0.2679,0.0751,-0.0122,0.0147,-10.5100,1.5710,-101.9850,
5.319132,-0.1000,-0.0896,0.2679,0.0751,-0.0122,0.0147,-11.3930,2.3170,-101.2090,
5.335411,-0.1000,-0.0896,0.2679,0.0751,-0.0122,0.0147,-11.3930,2.3170,-101.2090,
5.336777,-0.0458,0.4658,-0.0031,0.0751,-0.0122,0.0147,-11.3930,2.3170,-101.2090,
5.337602,-0.0458,0.4658,-0.0031,0.2004,-0.0177,0.0519,-11.3930,2.3170,-101.2090,
5.354873,-0.0458,0.4658,-0.0031,0.2511,-0.0617,0.0403,-11.3930,2.3170,-101.2090,
5.373898,-0.0458,0.4658,-0.0031,0.1943,-0.1313,-0.0415,-11.3930,2.3170,-101.2090,
5.378487,-0.0458,0.4658,-0.0031,0.1943,-0.1313,-0.0415,-12.2330,3.6220,-99.7740,
5.394533,-0.0458,0.4658,-0.0031,0.1943,-0.1313,-0.0415,-12.2330,3.6220,-99.7740,
5.396070,0.1252,0.2794,-0.4624,0.1943,-0.1313,-0.0415,-12.2330,3.6220,-99.7740,
5.396869,0.1252,0.2794,-0.4624,0.0867,-0.1472,-0.1252,-12.2330,3.6220,-99.7740,
5.415025,0.1252,0.2794,-0.4624,-0.0214,-0.1148,-0.1497,-12.2330,3.6220,-99.7740,
5.435243,0.1252,0.2794,-0.4624,-0.1002,-0.0770,-0.1570,-12.2330,3.6220,-99.7740,
5.442698,0.1252,0.2794,-0.4624,-0.1002,-0.0770,-0.1570,-11.6290,3.9530,-100.3310,
5.454624,0.1252,0.2794,-0.4624,-0.1002,-0.0770,-0.1570,-11.6290,3.9530,-100.3310,
5.455530,-0.1183,0.1864,-0.0271,-0.1002,-0.0770,-0.1570,-11.6290,3.9530,-100.3310,
5.456516,-0.1183,0.1864,-0.0271,-0.1228,-0.0440,-0.1436,-11.6290,3.9530,-100.3310,
5.474574,-0.1183,0.1864,-0.0271,-0.0971,-0.0788,-0.1264,-11.6290,3.9530,-100.3310,
5.495046,-0.1183,0.1864,-0.0271,-0.0458,-0.1075,-0.1307,-11.6290,3.9530,-100.3310,
5.498424,-0.1183,0.1864,-0.0271,-0.0458,-0.1075,-0.1307,-12.2980,2.8680,-101.8680,
5.514192,-0.1183,0.1864,-0.0271,-0.0458,-0.1075,-0.1307,-12.2980,2.8680,-101.8680,
5.516357,0.0666,0.1326,0.3837,-0.0458,-0.1075,-0.1307,-12.2980,2.8680,-101.8680,
5.517414,0.0666,0.1326,0.3837,0.0183,-0.0983,-0.1356,-12.2980,2.8680,-101.8680,
5.534995,0.0666,0.1326,0.3837,0.0849,-0.0843,-0.1307,-12.2980,2.8680,-101.8680,
5.554231,0.0666,0.1326,0.3837,0.1772,-0.0232,-0.0678,-12.2980,2.8680,-101.8680,
5.561316,0.0666,0.1326,0.3837,0.1772,-0.0232,-0.0678,-13.8990,1.7030,-101.8530,
5.578102,0.0666,0.1326,0.3837,0.1772,-0.0232,-0.0678,-13.8990,1.7030,-101.8530,
5.579430,-0.0251,0.2560,0.0156,0.1772,-0.0232,-0.0678,-13.8990,1.7030,-101.8530,
5.580488,-0.0251,0.2560,0.0156,0.2205,-0.0006,-0.0171,-13.8990,1.7030,-101.8530,
5.594194,-0.0251,0.2560,0.0156,0.1894,-0.0702,-0.0275,-13.8990,1.7030,-101.8530,
5.614534,-0.0251,0.2560,0.0156,0.1600,-0.1338,-0.0476,-13.8990,1.7030,-101.8530,
5.619579,-0.0251,0.2560,0.0156,0.1600,-0.1338,-0.0476,-13.7850,1.3650,-99.0920,
5.634712,-0.0251,0.2560,0.0156,0.1600,-0.1338,-0.0476,-13.7850,1.3650,-99.0920,
5.636224,-0.0102,0.4271,0.1390,0.1600,-0.1338,-0.0476,-13.7850,1.3650,-99.0920,
5.637251,-0.0102,0.4271,0.1390,0.1692,-0.0788,-0.0305,-13.7850,1.3650,-99.0920,
5.655025,-0.0102,0.4271,0.1390,0.1851,-0.0531,0.0171,-13.7850,1.3650,-99.0920,
5.676271,-0.0102,0.4271,0.1390,0.1472,-0.0470,0.0031,-13.7850,1.3650,-99.0920,
5.678991,-0.0102,0.4271,0.1390,0.1472,-0.0470,0.0031,-12.6350,1.1050,-99.7610,
5.696199,-0.0102,0.4271,0.1390,0.1472,-0.0470,0.0031,-12.6350,1.1050,-99.7610,
5.697473,-0.0102,0.4271,0.1390,0.0800,-0.1026,-0.0336,-12.6350,1.1050,-99.7610,
5.698092,0.1391,0.4397,0.1103,0.0800,-0.1026,-0.0336,-12.6350,1.1050,-99.7610,
5.714949,0.1391,0.4397,0.1103,0.0428,-0.1692,-0.0556,-12.6350,1.1050,-99.7610,
5.734987,0.1391,0.4397,0.1103,0.0837,-0.1497,-0.0342,-12.6350,1.1050,-99.7610,
5.738614,0.1391,0.4397,0.1103,0.0837,-0.1497,-0.0342,-13.0120,0.8750,-101.1930,
5.754446,0.1391,0.4397,0.1103,0.0837,-0.1497,-0.0342,-13.0120,0.8750,-101.1930,
5.755872,-0.0879,0.0812,0.4984,0.0837,-0.1497,-0.0342,-13.0120,0.8750,-101.1930,
5.757819,-0.0879,0.0812,0.4984,0.1576,-0.1460,-0.0232,-13.0120,0.8750,-101.1930,
5.774848,-0.0879,0.0812,0.4984,0.1784,-0.1851,-0.0751,-13.0120,0.8750,-101.1930,
5.794458,-0.0879,0.0812,0.4984,0.1570,-0.1356,-0.1454,-13.0120,0.8750,-101.1930,
5.798716,-0.0879,0.0812,0.4984,0.1570,-0.1356,-0.1454,-12.7910,0.5390,-99.8680,
5.815604,-0.0879,0.0812,0.4984,0.1570,-0.1356,-0.1454,-12.7910,0.5390,-99.8680,
5.817276,0.2154,-0.5757,0.0026,0.1570,-0.1356,-0.1454,-12.7910,0.5390,-99.8680,
5.818346,0.2154,-0.5757,0.0026,0.0861,-0.0538,-0.1710,-12.7910,0.5390,-99.8680,
5.835351,0.2154,-0.5757,0.0026,0.0067,0.0959,-0.1264,-12.7910,0.5390,-99.8680,
5.854153,0.2154,-0.5757,0.0026,-0.1093,0.2236,-0.1057,-12.7910,0.5390,-99.8680,
5.860767,0.2154,-0.5757,0.0026,-0.1093,0.2236,-0.1057,-12.3390,0.3060,-100.0910,
5.875388,0.2154,-0.5757,0.0026,-0.1093,0.2236,-0.1057,-12.3390,0.3060,-100.0910,
5.876913,0.6131,-0.3957,-0.1762,-0.1093,0.2236,-0.1057,-12.3390,0.3060,-100.0910,
5.878224,0.6131,-0.3957,-0.1762,-0.2382,0.2663,-0.1466,-12.3390,0.3060,-100.0910,
5.894488,0.6131,-0.3957,-0.1762,-0.3213,0.1808,-0.2327,-12.3390,0.3060,-100.0910,
5.914537,0.6131,-0.3957,-0.1762,-0.2889,0.1539,-0.2547,-12.3390,0.3060,-100.0910,
5.918990,0.6131,-0.3957,-0.1762,-0.2889,0.1539,-0.2547,-12.9290,0.2480,-100.1970,
5.935161,0.6131,-0.3957,-0.1762,-0.2889,0.1539,-0.2547,-12.9290,0.2480,-100.1970,
5.936975,-0.2911,-0.3512,0.3569,-0.2889,0.1539,-0.2547,-12.9290,0.2480,-100.1970,
5.937923,-0.2911,-0.3512,0.3569,-0.1491,0.1558,-0.1503,-12.9290,0.2480,-100.1970,
5.954286,-0.2911,-0.3512,0.3569,0.0440,0.1497,0.0018,-12.9290,0.2480,-100.1970,
5.975401,-0.2911,-0.3512,0.3569,0.2059,0.0495,0.1069,-12.9290,0.2480,-100.1970,
5.978942,-0.2911,-0.3512,0.3569,0.2059,0.0495,0.1069,-12.3460,0.2120,-100.2010,
5.995688,-0.2911,-0.3512,0.3569,0.2059,0.0495,0.1069,-12.3460,0.2120,-100.2010,
5.997118,0.6801,-0.0623,-0.5398,0.2059,0.0495,0.1069,-12.3460,0.2120,-100.2010,
5.998017,0.6801,-0.0623,-0.5398,0.2248,-0.0483,0.0971,-12.3460,0.2120,-100.2010,
6.014340,0.6801,-0.0623,-0.5398,0.0574,-0.0910,-0.0330,-12.3460,0.2120,-100.2010,
6.035276,0.6801,-0.0623,-0.5398,-0.1826,-0.1399,-0.1368,-12.3460,0.2120,-100.2010,
6.038873,0.6801,-0.0623,-0.5398,-0.1826,-0.1399,-0.1368,-11.6210,0.4710,-99.5440,
6.054178,0.6801,-0.0623,-0.5398,-0.1826,-0.1399,-0.1368,-11.6210,0.4710,-99.5440,
6.055503,0.5872,-0.2010,-0.1256,-0.1826,-0.1399,-0.1368,-11.6210,0.4710,-99.5440,
6.056541,0.5872,-0.2010,-0.1256,-0.3671,-0.1313,-0.1387,-11.6210,0.4710,-99.5440,
6.075329,0.5872,-0.2010,-0.1256,-0.4551,-0.0403,-0.0892,-11.6210,0.4710,-99.5440,
6.094083,0.5872,-0.2010,-0.1256,-0.4197,0.0593,-0.0244,-11.6210,0.4710,-99.5440,
6.100646,0.5872,-0.2010,-0.1256,-0.4197,0.0593,-0.0244,-11.8580,0.3600,-98.8800,
6.116725,0.5872,-0.2010,-0.1256,-0.4197,0.0593,-0.0244,-11.8580,0.3600,-98.8800,
6.117637,0.0476,-0.0574,0.6819,-0.4197,0.0593,-0.0244,-11.8580,0.3600,-98.8800,
6.118467,0.0476,-0.0574,0.6819,-0.2792,0.1063,0.0641,-11.8580,0.3600,-98.8800,
6.135267,0.0476,-0.0574,0.6819,-0.0635,0.1264,0.1600,-11.8580,0.3600,-98.8800,
6.156167,0.0476,-0.0574,0.6819,0.1399,0.0812,0.1875,-11.8580,0.3600,-98.8800,
6.159196,0.0476,-0.0574,0.6819,0.1399,0.0812,0.1875,-12.6700,0.6390,-100.3110,
6.176185,0.0476,-0.0574,0.6819,0.1399,0.0812,0.1875,-12.6700,0.6390,-100.3110,
6.177691,0.6746,0.4450,-0.2141,0.1399,0.0812,0.1875,-12.6700,0.6390,-100.3110,
6.178744,0.6746,0.4450,-0.2141,0.2285,-0.0287,0.1142,-12.6700,0.6390,-100.3110,
6.195452,0.6746,0.4450,-0.2141,0.2065,-0.0360,-0.0067,-12.6700,0.6390,-100.3110,
6.214581,0.6746,0.4450,-0.2141,0.1240,0.0006,-0.0275,-12.6700,0.6390,-100.3110,
6.218857,0.6746,0.4450,-0.2141,0.1240,0.0006,-0.0275,-13.5500,1.5600,-100.8610,
6.236581,0.6746,0.4450,-0.2141,0.1240,0.0006,-0.0275,-13.5500,1.5600,-100.8610,
6.237972,-0.1972,0.0598,-0.5815,0.1240,0.0006,-0.0275,-13.5500,1.5600,-100.8610,
6.238923,-0.1972,0.0598,-0.5815,0.0629,0.0073,0.0354,-13.5500,1.5600,-100.8610,
6.256268,-0.1972,0.0598,-0.5815,0.0312,0.0165,0.0861,-13.5500,1.5600,-100.8610,
6.278701,-0.1972,0.0598,-0.5815,0.0061,-0.0140,0.0898,-13.5500,1.5600,-100.8610,
6.280265,-0.1972,0.0598,-0.5815,0.0061,-0.0140,0.0898,-12.4840,1.6670,-100.3160,
6.295227,-0.1972,0.0598,-0.5815,0.0061,-0.0140,0.0898,-12.4840,1.6670,-100.3160,
6.296804,0.0795,0.0891,-0.1171,0.0061,-0.0140,0.0898,-12.4840,1.6670,-100.3160,
6.299087,0.0795,0.0891,-0.1171,0.0061,-0.0061,0.0629,-12.4840,1.6670,-100.3160,
6.315770,0.0795,0.0891,-0.1171,0.0354,0.0806,0.0764,-12.4840,1.6670,-100.3160,
6.335512,0.0795,0.0891,-0.1171,0.0672,0.0874,0.1051,-12.4840,1.6670,-100.3160,
6.339805,0.0795,0.0891,-0.1171,0.0672,0.0874,0.1051,-11.8360,0.8130,-100.0960,
6.355525,0.0795,0.0891,-0.1171,0.0672,0.0874,0.1051,-11.8360,0.8130,-100.0960,
6.357613,-0.0177,0.0865,-0.2312,0.0672,0.0874,0.1051,-11.8360,0.8130,-100.0960,
6.358575,-0.0177,0.0865,-0.2312,0.1081,0.0953,0.1423,-11.8360,0.8130,-100.0960,
6.377214,-0.0177,0.0865,-0.2312,0.1503,0.1008,0.1600,-11.8360,0.8130,-100.0960,
6.394627,-0.0177,0.0865,-0.2312,0.1863,0.1106,0.1698,-11.8360,0.8130,-100.0960,
6.400659,-0.0177,0.0865,-0.2312,0.1863,0.1106,0.1698,-12.5440,0.7450,-100.0910,
6.416647,-0.0177,0.0865,-0.2312,0.1863,0.1106,0.1698,-12.5440,0.7450,-100.0910,
6.417687,0.1767,0.3096,-0.5537,0.1863,0.1106,0.1698,-12.5440,0.7450,-100.0910,
6.418775,0.1767,0.3096,-0.5537,0.1979,0.0983,0.1808,-12.5440,0.7450,-100.0910,
6.435753,0.1767,0.3096,-0.5537,0.1692,0.0385,0.1491,-12.5440,0.7450,-100.0910,
6.455729,0.1767,0.3096,-0.5537,0.1216,0.0055,0.1191,-12.5440,0.7450,-100.0910,
6.460243,0.1767,0.3096,-0.5537,0.1216,0.0055,0.1191,-11.9480,0.9810,-100.8690,
6.475723,0.1767,0.3096,-0.5537,0.1216,0.0055,0.1191,-11.9480,0.9810,-100.8690,
6.477471,0.0411,0.3437,-0.3135,0.1216,0.0055,0.1191,-11.9480,0.9810,-100.8690,
6.478631,0.0411,0.3437,-0.3135,0.0733,0.0140,0.0990,-11.9480,0.9810,-100.8690,
6.493983,0.0411,0.3437,-0.3135,0.0446,0.0153,0.1112,-11.9480,0.9810,-100.8690,
6.514553,0.0411,0.3437,-0.3135,-0.0086,-0.0073,0.0721,-11.9480,0.9810,-100.8690,
6.518259,0.0411,0.3437,-0.3135,-0.0086,-0.0073,0.0721,-11.2240,1.3240,-101.2060,
6.534565,0.0411,0.3437,-0.3135,-0.0086,-0.0073,0.0721,-11.2240,1.3240,-101.2060,
6.537666,0.1947,-0.0158,0.2639,-0.0086,-0.0073,0.0721,-11.2240,1.3240,-101.2060,
6.538483,0.1947,-0.0158,0.2639,-0.0525,0.0024,0.0250,-11.2240,1.3240,-101.2060,
6.553956,0.1947,-0.0158,0.2639,-0.0757,0.0140,0.0281,-11.2240,1.3240,-101.2060,
6.574802,0.1947,-0.0158,0.2639,-0.0409,0.0892,0.0996,-11.2240,1.3240,-101.2060,
6.579578,0.1947,-0.0158,0.2639,-0.0409,0.0892,0.0996,-11.1010,1.3410,-100.4350,
6.595473,0.1947,-0.0158,0.2639,-0.0409,0.0892,0.0996,-11.1010,1.3410,-100.4350,
6.597000,-0.3705,-0.2767,1.0264,-0.0409,0.0892,0.0996,-11.1010,1.3410,-100.4350,
6.598243,-0.3705,-0.2767,1.0264,0.0684,0.1869,0.2327,-11.1010,1.3410,-100.4350,
6.615632,-0.3705,-0.2767,1.0264,0.1784,0.1692,0.3054,-11.1010,1.3410,-100.4350,
6.636947,-0.3705,-0.2767,1.0264,0.2718,0.1924,0.3115,-11.1010,1.3410,-100.4350,
6.638415,-0.3705,-0.2767,1.0264,0.2718,0.1924,0.3115,-11.5000,0.5710,-99.9870,
6.654709,-0.3705,-0.2767,1.0264,0.2718,0.1924,0.3115,-11.5000,0.5710,-99.9870,
6.656493,-0.2413,0.0372,0.6307,0.2718,0.1924,0.3115,-11.5000,0.5710,-99.9870,
6.657746,-0.2413,0.0372,0.6307,0.3097,0.2138,0.2950,-11.5000,0.5710,-99.9870,
6.675127,-0.2413,0.0372,0.6307,0.2700,0.1943,0.2541,-11.5000,0.5710,-99.9870,
6.694188,-0.2413,0.0372,0.6307,0.1588,0.1246,0.1979,-11.5000,0.5710,-99.9870,
6.700287,-0.2413,0.0372,0.6307,0.1588,0.1246,0.1979,-11.9860,0.2520,-99.4310,
6.715590,-0.2413,0.0372,0.6307,0.1588,0.1246,0.1979,-11.9860,0.2520,-99.4310,
6.716804,0.1712,0.0200,-0.3357,0.1588,0.1246,0.1979,-11.9860,0.2520,-99.4310,
6.717704,0.1712,0.0200,-0.3357,-0.0513,0.0269,0.0922,-11.9860,0.2520,-99.4310,
6.735091,0.1712,0.0200,-0.3357,-0.2841,0.0220,-0.0354,-11.9860,0.2520,-99.4310,
6.756355,0.1712,0.0200,-0.3357,-0.4417,0.0660,-0.1307,-11.9860,0.2520,-99.4310,
6.760355,0.1712,0.0200,-0.3357,-0.4417,0.0660,-0.1307,-11.7020,1.1000,-100.3190,
6.775913,0.1712,0.0200,-0.3357,-0.4417,0.0660,-0.1307,-11.7020,1.1000,-100.3190,
6.777387,-0.5354,-0.8583,0.4944,-0.4417,0.0660,-0.1307,-11.7020,1.1000,-100.3190,
6.778415,-0.5354,-0.8583,0.4944,-0.4209,0.1448,-0.1008,-11.7020,1.1000,-100.3190,
6.795409,-0.5354,-0.8583,0.4944,-0.2608,0.2022,0.0275,-11.7020,1.1000,-100.3190,
6.814854,-0.5354,-0.8583,0.4944,-0.0348,0.1576,0.1491,-11.7020,1.1000,-100.3190,
6.820508,-0.5354,-0.8583,0.4944,-0.0348,0.1576,0.1491,-12.0440,1.1630,-99.6550,
6.834827,-0.5354,-0.8583,0.4944,-0.0348,0.1576,0.1491,-12.0440,1.1630,-99.6550,
6.836441,-0.4938,-0.6092,0.3783,-0.0348,0.1576,0.1491,-12.0440,1.1630,-99.6550,
6.837588,-0.4938,-0.6092,0.3783,0.1472,0.0770,0.1356,-12.0440,1.1630,-99.6550,
6.854633,-0.4938,-0.6092,0.3783,0.2425,0.0055,0.0757,-12.0440,1.1630,-99.6550,
6.877977,-0.4938,-0.6092,0.3783,0.2584,-0.0257,0.0360,-12.0440,1.1630,-99.6550,
6.879661,-0.4938,-0.6092,0.3783,0.2584,-0.0257,0.0360,-10.6890,0.3780,-99.4400,
6.895052,-0.4938,-0.6092,0.3783,0.2584,-0.0257,0.0360,-10.6890,0.3780,-99.4400,
6.896504,-0.4311,-0.4208,-0.5505,0.2584,-0.0257,0.0360,-10.6890,0.3780,-99.4400,
6.897494,-0.4311,-0.4208,-0.5505,0.1558,-0.0690,-0.0397,-10.6890,0.3780,-99.4400,
6.914858,-0.4311,-0.4208,-0.5505,-0.0342,-0.0794,-0.1362,-10.6890,0.3780,-99.4400,
6.935584,-0.4311,-0.4208,-0.5505,-0.2120,-0.0293,-0.1582,-10.6890,0.3780,-99.4400,
6.940260,-0.4311,-0.4208,-0.5505,-0.2120,-0.0293,-0.1582,-9.2630,0.8710,-101.2180,
6.954624,-0.4311,-0.4208,-0.5505,-0.2120,-0.0293,-0.1582,-9.2630,0.8710,-101.2180,
6.956181,-0.4311,-0.4208,-0.5505,-0.2902,0.0727,-0.1124,-9.2630,0.8710,-101.2180,
6.957112,-0.8122,-0.7719,-0.1300,-0.2902,0.0727,-0.1124,-9.2630,0.8710,-101.2180,
6.974446,-0.8122,-0.7719,-0.1300,-0.2462,0.1637,-0.0159,-9.2630,0.8710,-101.2180,
6.994230,-0.8122,-0.7719,-0.1300,-0.1216,0.2065,0.0757,-9.2630,0.8710,-101.2180,
6.999165,-0.8122,-0.7719,-0.1300,-0.1216,0.2065,0.0757,-9.7370,0.7370,-100.7720,
7.014132,-0.8122,-0.7719,-0.1300,-0.1216,0.2065,0.0757,-9.7370,0.7370,-100.7720,
7.015244,-0.5506,-0.3533,-0.2299,-0.1216,0.2065,0.0757,-9.7370,0.7370,-100.7720,
7.016846,-0.5506,-0.3533,-0.2299,-0.0159,0.1081,0.0617,-9.7370,0.7370,-100.7720,
7.035122,-0.5506,-0.3533,-0.2299,0.0312,-0.0397,-0.0098,-9.7370,0.7370,-100.7720,
7.054796,-0.5506,-0.3533,-0.2299,0.0544,-0.0391,-0.0250,-9.7370,0.7370,-100.7720,
7.062401,-0.5506,-0.3533,-0.2299,0.0544,-0.0391,-0.0250,-9.2610,0.8730,-100.9970,
7.074632,-0.5506,-0.3533,-0.2299,0.0544,-0.0391,-0.0250,-9.2610,0.8730,-100.9970,
7.076227,-0.4908,0.1107,-0.7675,0.0544,-0.0391,-0.0250,-9.2610,0.8730,-100.9970,
7.077863,-0.4908,0.1107,-0.7675,0.0183,0.0360,-0.0055,-9.2610,0.8730,-100.9970,
7.093752,-0.4908,0.1107,-0.7675,-0.0641,0.0312,-0.0037,-9.2610,0.8730,-100.9970,
7.114031,-0.4908,0.1107,-0.7675,-0.1399,-0.0336,-0.0360,-9.2610,0.8730,-100.9970,
7.118591,-0.4908,0.1107,-0.7675,-0.1399,-0.0336,-0.0360,-9.8430,0.9100,-100.7720,
7.135162,-0.4908,0.1107,-0.7675,-0.1399,-0.0336,-0.0360,-9.8430,0.9100,-100.7720,
7.136699,0.1562,0.1083,-0.4372,-0.1399,-0.0336,-0.0360,-9.8430,0.9100,-100.7720,
7.137548,0.1562,0.1083,-0.4372,-0.1881,-0.1069,-0.1038,-9.8430,0.9100,-100.7720,
7.154227,0.1562,0.1083,-0.4372,-0.2107,-0.1582,-0.1491,-9.8430,0.9100,-100.7720,
7.173405,0.1562,0.1083,-0.4372,-0.1955,-0.1564,-0.1277,-9.8430,0.9100,-100.7720,
7.177996,0.1562,0.1083,-0.4372,-0.1955,-0.1564,-0.1277,-10.3000,0.9650,-99.6650,
7.193573,0.1562,0.1083,-0.4372,-0.1955,-0.1564,-0.1277,-10.3000,0.9650,-99.6650,
7.194720,-0.0788,0.0857,0.1407,-0.1955,-0.1564,-0.1277,-10.3000,0.9650,-99.6650,
7.195508,-0.0788,0.0857,0.1407,-0.1332,-0.1240,-0.0764,-10.3000,0.9650,-99.6650,
7.214293,-0.0788,0.0857,0.1407,-0.0354,-0.1203,-0.0397,-10.3000,0.9650,-99.6650,
7.234455,-0.0788,0.0857,0.1407,0.0623,-0.1252,-0.0312,-10.3000,0.9650,-99.6650,
7.239233,-0.0788,0.0857,0.1407,0.0623,-0.1252,-0.0312,-10.8550,1.5460,-100.7680,
7.254092,-0.0788,0.0857,0.1407,0.0623,-0.1252,-0.0312,-10.8550,1.5460,-100.7680,
7.255642,0.1081,0.4589,0.0862,0.0623,-0.1252,-0.0312,-10.8550,1.5460,-100.7680,
7.256792,0.1081,0.4589,0.0862,0.1564,-0.1326,-0.0281,-10.8550,1.5460,-100.7680,
7.274236,0.1081,0.4589,0.0862,0.2077,-0.1924,-0.0385,-10.8550,1.5460,-100.7680,
7.294959,0.1081,0.4589,0.0862,0.2101,-0.2572,-0.0574,-10.8550,1.5460,-100.7680,
7.300664,0.1081,0.4589,0.0862,0.2101,-0.2572,-0.0574,-11.8390,0.8970,-101.2010,
7.316655,0.1081,0.4589,0.0862,0.2101,-0.2572,-0.0574,-11.8390,0.8970,-101.2010,
7.318349,0.1081,0.4589,0.0862,0.1820,-0.2456,-0.0757,-11.8390,0.8970,-101.2010,
7.319326,0.0563,0.3181,-0.0423,0.1820,-0.2456,-0.0757,-11.8390,0.8970,-101.2010,
7.335069,0.0563,0.3181,-0.0423,0.1338,-0.2364,-0.0886,-11.8390,0.8970,-101.2010,
7.354482,0.0563,0.3181,-0.0423,0.0348,-0.2456,-0.1350,-11.8390,0.8970,-101.2010,
7.358404,0.0563,0.3181,-0.0423,0.0348,-0.2456,-0.1350,-11.0180,0.8860,-101.0960,
7.373878,0.0563,0.3181,-0.0423,0.0348,-0.2456,-0.1350,-11.0180,0.8860,-101.0960,
7.375368,-0.0111,0.1880,0.2424,0.0348,-0.2456,-0.1350,-11.0180,0.8860,-101.0960,
7.376518,-0.0111,0.1880,0.2424,-0.0458,-0.1906,-0.1613,-11.0180,0.8860,-101.0960,
7.394341,-0.0111,0.1880,0.2424,-0.1014,-0.1197,-0.1319,-11.0180,0.8860,-101.0960,
7.415138,-0.0111,0.1880,0.2424,-0.1118,-0.1985,-0.0623,-11.0180,0.8860,-101.0960,
7.418797,-0.0111,0.1880,0.2424,-0.1118,-0.1985,-0.0623,-11.5300,1.9410,-100.5450,
7.434458,-0.0111,0.1880,0.2424,-0.1118,-0.1985,-0.0623,-11.5300,1.9410,-100.5450,
7.436231,-0.3134,0.2174,1.1592,-0.1118,-0.1985,-0.0623,-11.5300,1.9410,-100.5450,
7.437259,-0.3134,0.2174,1.1592,-0.0428,-0.2272,0.0134,-11.5300,1.9410,-100.5450,
7.454386,-0.3134,0.2174,1.1592,0.0177,-0.2914,0.0232,-11.5300,1.9410,-100.5450,
7.474256,-0.3134,0.2174,1.1592,0.0281,-0.3189,-0.0446,-11.5300,1.9410,-100.5450,
7.478304,-0.3134,0.2174,1.1592,0.0281,-0.3189,-0.0446,-11.8990,1.5470,-99.3260,
7.495031,-0.3134,0.2174,1.1592,0.0281,-0.3189,-0.0446,-11.8990,1.5470,-99.3260,
7.496495,0.0519,-0.0377,1.0300,0.0281,-0.3189,-0.0446,-11.8990,1.5470,-99.3260,
7.497374,0.0519,-0.0377,1.0300,0.0214,-0.2193,-0.0672,-11.8990,1.5470,-99.3260,
7.514731,0.0519,-0.0377,1.0300,-0.0379,-0.1258,-0.0702,-11.8990,1.5470,-99.3260,
7.534869,0.0519,-0.0377,1.0300,-0.1808,-0.1118,-0.1466,-11.8990,1.5470,-99.3260,
7.539682,0.0519,-0.0377,1.0300,-0.1808,-0.1118,-0.1466,-11.8860,1.6460,-98.3330,
7.555663,0.0519,-0.0377,1.0300,-0.1808,-0.1118,-0.1466,-11.8860,1.6460,-98.3330,
7.557244,0.0519,-0.0377,1.0300,-0.2517,0.0147,-0.2095,-11.8860,1.6460,-98.3330,
7.558128,0.5711,-0.8658,0.7293,-0.2517,0.0147,-0.2095,-11.8860,1.6460,-98.3330,
7.575488,0.5711,-0.8658,0.7293,-0.1943,0.1985,-0.1851,-11.8860,1.6460,-98.3330,
7.594910,0.5711,-0.8658,0.7293,-0.0568,0.2902,-0.1240,-11.8860,1.6460,-98.3330,
7.599096,0.5711,-0.8658,0.7293,-0.0568,0.2902,-0.1240,-13.0830,1.2550,-98.3230,
7.613921,0.5711,-0.8658,0.7293,-0.0568,0.2902,-0.1240,-13.0830,1.2550,-98.3230,
7.615618,-0.0310,-1.1680,0.1497,-0.0568,0.2902,-0.1240,-13.0830,1.2550,-98.3230,
7.616948,-0.0310,-1.1680,0.1497,0.0916,0.2969,-0.0874,-13.0830,1.2550,-98.3230,
7.634528,-0.0310,-1.1680,0.1497,0.2401,0.2224,-0.0489,-13.0830,1.2550,-98.3230,
7.654257,-0.0310,-1.1680,0.1497,0.3262,0.0953,0.0110,-13.0830,1.2550,-98.3230,
7.658353,-0.0310,-1.1680,0.1497,0.3262,0.0953,0.0110,-13.0830,1.2550,-98.3230,
7.675162,-0.0310,-1.1680,0.1497,0.3262,0.0953,0.0110,-13.0830,1.2550,-98.3230,
7.677208,0.3710,-1.0599,-0.3753,0.3262,0.0953,0.0110,-13.0830,1.2550,-98.3230,
7.678422,0.3710,-1.0599,-0.3753,0.3812,0.0177,0.0831,-13.0830,1.2550,-98.3230,
7.694076,0.3710,-1.0599,-0.3753,0.3415,-0.0324,0.0641,-13.0830,1.2550,-98.3230,
7.713702,0.3710,-1.0599,-0.3753,0.1582,-0.1142,-0.0880,-13.0830,1.2550,-98.3230,
7.718571,0.3710,-1.0599,-0.3753,0.1582,-0.1142,-0.0880,-12.7150,1.5630,-98.7690,
7.734217,0.3710,-1.0599,-0.3753,0.1582,-0.1142,-0.0880,-12.7150,1.5630,-98.7690,
7.735773,1.3044,-1.1760,-0.3245,0.1582,-0.1142,-0.0880,-12.7150,1.5630,-98.7690,
7.737088,1.3044,-1.1760,-0.3245,-0.1381,-0.1729,-0.3293,-12.7150,1.5630,-98.7690,
7.754215,1.3044,-1.1760,-0.3245,-0.3549,-0.0770,-0.3836,-12.7150,1.5630,-98.7690,
7.775058,1.3044,-1.1760,-0.3245,-0.4710,0.0183,-0.3152,-12.7150,1.5630,-98.7690,
7.778925,1.3044,-1.1760,-0.3245,-0.4710,0.0183,-0.3152,-12.9090,0.3540,-98.3210,
7.794472,1.3044,-1.1760,-0.3245,-0.4710,0.0183,-0.3152,-12.9090,0.3540,-98.3210,
7.796386,0.1160,-1.2655,0.6766,-0.4710,0.0183,-0.3152,-12.9090,0.3540,-98.3210,
7.797627,0.1160,-1.2655,0.6766,-0.4319,0.1625,-0.1588,-12.9090,0.3540,-98.3210,
7.814009,0.1160,-1.2655,0.6766,-0.2303,0.3134,0.0330,-12.9090,0.3540,-98.3210,
7.834366,0.1160,-1.2655,0.6766,0.1008,0.3299,0.1521,-12.9090,0.3540,-98.3210,
7.839150,0.1160,-1.2655,0.6766,0.1008,0.3299,0.1521,-12.4190,0.5040,-96.7790,
7.854148,0.1160,-1.2655,0.6766,0.1008,0.3299,0.1521,-12.4190,0.5040,-96.7790,
7.855792,0.1160,-1.2655,0.6766,0.3115,0.1545,0.1161,-12.4190,0.5040,-96.7790,
7.856571,0.6331,-0.5916,0.0778,0.3115,0.1545,0.1161,-12.4190,0.5040,-96.7790,
7.873809,0.6331,-0.5916,0.0778,0.3763,-0.0281,0.0208,-12.4190,0.5040,-96.7790,
7.893530,0.6331,-0.5916,0.0778,0.3519,-0.0525,-0.0159,-12.4190,0.5040,-96.7790,
7.899330,0.6331,-0.5916,0.0778,0.3519,-0.0525,-0.0159,-12.3810,1.3190,-98.9910,
7.914142,0.6331,-0.5916,0.0778,0.3519,-0.0525,-0.0159,-12.3810,1.3190,-98.9910,
7.915165,0.5784,-0.3082,-1.1070,0.3519,-0.0525,-0.0159,-12.3810,1.3190,-98.9910,
7.916609,0.5784,-0.3082,-1.1070,0.2260,0.0165,0.0037,-12.3810,1.3190,-98.9910,
7.933979,0.5784,-0.3082,-1.1070,0.0202,0.1026,0.0153,-12.3810,1.3190,-98.9910,
7.953208,0.5784,-0.3082,-1.1070,-0.1362,0.0929,0.0263,-12.3810,1.3190,-98.9910,
7.957881,0.5784,-0.3082,-1.1070,-0.1362,0.0929,0.0263,-12.2500,1.6880,-100.5390,
7.973184,0.5784,-0.3082,-1.1070,-0.1362,0.0929,0.0263,-12.2500,1.6880,-100.5390,
7.974312,0.4335,-0.4796,-0.5729,-0.1362,0.0929,0.0263,-12.2500,1.6880,-100.5390,
7.975162,0.4335,-0.4796,-0.5729,-0.2169,0.0385,0.0483,-12.2500,1.6880,-100.5390,
7.993550,0.4335,-0.4796,-0.5729,-0.2162,-0.0024,0.0696,-12.2500,1.6880,-100.5390,
8.014171,0.4335,-0.4796,-0.5729,-0.1509,0.0684,0.1142,-12.2500,1.6880,-100.5390,
8.018637,0.4335,-0.4796,-0.5729,-0.1509,0.0684,0.1142,-10.4890,1.5930,-99.1150,
8.033999,0.4335,-0.4796,-0.5729,-0.1509,0.0684,0.1142,-10.4890,1.5930,-99.1150,
8.035489,-0.2036,0.0011,-0.2315,-0.1509,0.0684,0.1142,-10.4890,1.5930,-99.1150,
8.036754,-0.2036,0.0011,-0.2315,-0.0336,0.0819,0.1888,-10.4890,1.5930,-99.1150,
8.054076,-0.2036,0.0011,-0.2315,0.0715,0.0452,0.2456,-10.4890,1.5930,-99.1150,
8.074245,-0.2036,0.0011,-0.2315,0.1045,-0.0495,0.2657,-10.4890,1.5930,-99.1150,
8.079188,-0.2036,0.0011,-0.2315,0.1045,-0.0495,0.2657,-10.8150,1.8450,-97.8990,
8.093830,-0.2036,0.0011,-0.2315,0.1045,-0.0495,0.2657,-10.8150,1.8450,-97.8990,
8.095093,0.1984,0.4176,-0.3618,0.1045,-0.0495,0.2657,-10.8150,1.8450,-97.8990,
8.096010,0.1984,0.4176,-0.3618,0.0929,-0.0556,0.2584,-10.8150,1.8450,-97.8990,
8.113664,0.1984,0.4176,-0.3618,0.0373,0.0312,0.2425,-10.8150,1.8450,-97.8990,
8.136668,0.1984,0.4176,-0.3618,-0.0189,0.0745,0.2321,-10.8150,1.8450,-97.8990,
8.139147,0.1984,0.4176,-0.3618,-0.0189,0.0745,0.2321,-11.9940,1.6440,-97.1180,
8.154764,0.1984,0.4176,-0.3618,-0.0189,0.0745,0.2321,-11.9940,1.6440,-97.1180,
8.156216,0.0263,0.0096,0.1239,-0.0189,0.0745,0.2321,-11.9940,1.6440,-97.1180,
8.157082,0.0263,0.0096,0.1239,-0.0415,0.0886,0.2309,-11.9940,1.6440,-97.1180,
8.175270,0.0263,0.0096,0.1239,-0.0367,0.0837,0.2474,-11.9940,1.6440,-97.1180,
8.193919,0.0263,0.0096,0.1239,-0.0098,0.0672,0.2669,-11.9940,1.6440,-97.1180,
8.199259,0.0263,0.0096,0.1239,-0.0098,0.0672,0.2669,-11.2290,0.9740,-98.5550,
8.213299,0.0263,0.0096,0.1239,-0.0098,0.0672,0.2669,-11.2290,0.9740,-98.5550,
8.214052,0.1059,-0.2095,0.8146,-0.0098,0.0672,0.2669,-11.2290,0.9740,-98.5550,
8.214882,0.1059,-0.2095,0.8146,0.0214,0.0354,0.2621,-11.2290,0.9740,-98.5550,
8.238219,0.1059,-0.2095,0.8146,0.0434,0.0531,0.2560,-11.2290,0.9740,-98.5550,
8.253857,0.1059,-0.2095,0.8146,0.0104,0.0177,0.2144,-11.2290,0.9740,-98.5550,
8.258730,0.1059,-0.2095,0.8146,0.0104,0.0177,0.2144,-9.2390,1.0680,-99.6730,
8.273525,0.1059,-0.2095,0.8146,0.0104,0.0177,0.2144,-9.2390,1.0680,-99.6730,
8.274809,-0.2404,-0.2906,1.5106,0.0104,0.0177,0.2144,-9.2390,1.0680,-99.6730,
8.275733,-0.2404,-0.2906,1.5106,-0.0971,-0.0379,0.1698,-9.2390,1.0680,-99.6730,
8.293194,-0.2404,-0.2906,1.5106,-0.1930,0.0159,0.1613,-9.2390,1.0680,-99.6730,
8.314097,-0.2404,-0.2906,1.5106,-0.2456,0.1527,0.1350,-9.2390,1.0680,-99.6730,
8.318081,-0.2404,-0.2906,1.5106,-0.2456,0.1527,0.1350,-9.8530,0.6410,-99.6670,
8.333135,-0.2404,-0.2906,1.5106,-0.2456,0.1527,0.1350,-9.8530,0.6410,-99.6670,
8.334464,0.1044,-0.3391,1.0164,-0.2456,0.1527,0.1350,-9.8530,0.6410,-99.6670,
8.335529,0.1044,-0.3391,1.0164,-0.2847,0.2456,0.0825,-9.8530,0.6410,-99.6670,
8.353229,0.1044,-0.3391,1.0164,-0.3793,0.2645,-0.0489,-9.8530,0.6410,-99.6670,
8.373091,0.1044,-0.3391,1.0164,-0.4160,0.2706,-0.1173,-9.8530,0.6410,-99.6670,
8.377852,0.1044,-0.3391,1.0164,-0.4160,0.2706,-0.1173,-11.5060,0.4790,-99.8760,
8.393148,0.1044,-0.3391,1.0164,-0.4160,0.2706,-0.1173,-11.5060,0.4790,-99.8760,
8.394911,-0.4715,-0.7938,0.8208,-0.4160,0.2706,-0.1173,-11.5060,0.4790,-99.8760,
8.396274,-0.4715,-0.7938,0.8208,-0.3152,0.2089,-0.0470,-11.5060,0.4790,-99.8760,
8.412975,-0.4715,-0.7938,0.8208,-0.0849,0.2370,0.1069,-11.5060,0.4790,-99.8760,
8.433178,-0.4715,-0.7938,0.8208,0.1289,0.2364,0.1637,-11.5060,0.4790,-99.8760,
8.440102,-0.4715,-0.7938,0.8208,0.1289,0.2364,0.1637,-11.3060,1.6940,-99.6620,
8.452731,-0.4715,-0.7938,0.8208,0.1289,0.2364,0.1637,-11.3060,1.6940,-99.6620,
8.453634,-0.4768,-0.8031,-0.0974,0.1289,0.2364,0.1637,-11.3060,1.6940,-99.6620,
8.454274,-0.4768,-0.8031,-0.0974,0.2657,0.0531,0.0996,-11.3060,1.6940,-99.6620,
8.472781,-0.4768,-0.8031,-0.0974,0.3732,-0.0727,0.0666,-11.3060,1.6940,-99.6620,
8.492529,-0.4768,-0.8031,-0.0974,0.4319,-0.0770,0.1326,-11.3060,1.6940,-99.6620,
8.499221,-0.4768,-0.8031,-0.0974,0.4319,-0.0770,0.1326,-10.8320,1.8280,-100.1070,
8.512748,-0.4768,-0.8031,-0.0974,0.4319,-0.0770,0.1326,-10.8320,1.8280,-100.1070,
8.513443,-0.5964,-0.5592,-1.4527,0.4319,-0.0770,0.1326,-10.8320,1.8280,-100.1070,
8.514331,-0.5964,-0.5592,-1.4527,0.3500,-0.1161,0.1448,-10.8320,1.8280,-100.1070,
8.533463,-0.5964,-0.5592,-1.4527,0.1460,-0.1985,0.0348,-10.8320,1.8280,-100.1070,
8.553011,-0.5964,-0.5592,-1.4527,-0.1100,-0.2095,-0.0831,-10.8320,1.8280,-100.1070,
8.557531,-0.5964,-0.5592,-1.4527,-0.1100,-0.2095,-0.0831,-10.5060,1.5760,-101.4330,
8.573079,-0.5964,-0.5592,-1.4527,-0.1100,-0.2095,-0.0831,-10.5060,1.5760,-101.4330,
8.573662,-0.5002,-0.7875,-1.0530,-0.1100,-0.2095,-0.0831,-10.5060,1.5760,-101.4330,
8.574006,-0.5002,-0.7875,-1.0530,-0.3018,-0.1161,-0.1063,-10.5060,1.5760,-101.4330,
8.594183,-0.5002,-0.7875,-1.0530,-0.3946,-0.0269,-0.0635,-10.5060,1.5760,-101.4330,
8.613092,-0.5002,-0.7875,-1.0530,-0.3512,-0.0195,0.0043,-10.5060,1.5760,-101.4330,
8.617208,-0.5002,-0.7875,-1.0530,-0.3512,-0.0195,0.0043,-10.6370,1.2930,-100.6580,
8.632849,-0.5002,-0.7875,-1.0530,-0.3512,-0.0195,0.0043,-10.6370,1.2930,-100.6580,
8.633383,-0.6485,-0.8647,-0.0212,-0.3512,-0.0195,0.0043,-10.6370,1.2930,-100.6580,
8.633820,-0.6485,-0.8647,-0.0212,-0.2211,-0.0886,0.0330,-10.6370,1.2930,-100.6580,
8.652853,-0.6485,-0.8647,-0.0212,-0.0574,-0.1246,0.0342,-10.6370,1.2930,-100.6580,
8.672697,-0.6485,-0.8647,-0.0212,0.1002,-0.0605,0.0654,-10.6370,1.2930,-100.6580,
8.677244,-0.6485,-0.8647,-0.0212,0.1002,-0.0605,0.0654,-10.6830,0.5570,-100.2130,
8.692486,-0.6485,-0.8647,-0.0212,0.1002,-0.0605,0.0654,-10.6830,0.5570,-100.2130,
8.692939,-0.5156,-0.2003,-0.6105,0.1002,-0.0605,0.0654,-10.6830,0.5570,-100.2130,
8.693225,-0.5156,-0.2003,-0.6105,0.1839,-0.0440,0.0794,-10.6830,0.5570,-100.2130,
8.712614,-0.5156,-0.2003,-0.6105,0.1723,-0.1045,0.0483,-10.6830,0.5570,-100.2130,
8.732381,-0.5156,-0.2003,-0.6105,0.0721,-0.1961,-0.0312,-10.6830,0.5570,-100.2130,
8.737129,-0.5156,-0.2003,-0.6105,0.0721,-0.1961,-0.0312,-11.3940,-1.1730,-101.6370,
8.752718,-0.5156,-0.2003,-0.6105,0.0721,-0.1961,-0.0312,-11.3940,-1.1730,-101.6370,
8.753475,0.2238,0.1330,-0.7860,0.0721,-0.1961,-0.0312,-11.3940,-1.1730,-101.6370,
8.754013,0.2238,0.1330,-0.7860,-0.0922,-0.2505,-0.1179,-11.3940,-1.1730,-101.6370,
8.773127,0.2238,0.1330,-0.7860,-0.2431,-0.1784,-0.1607,-11.3940,-1.1730,-101.6370,
8.792718,0.2238,0.1330,-0.7860,-0.3286,-0.0476,-0.1491,-11.3940,-1.1730,-101.6370,
8.797386,0.2238,0.1330,-0.7860,-0.3286,-0.0476,-0.1491,-11.9540,-0.7700,-101.8550,
8.812312,0.2238,0.1330,-0.7860,-0.3286,-0.0476,-0.1491,-11.9540,-0.7700,-101.8550,
8.812743,-0.0719,0.0412,0.2985,-0.3286,-0.0476,-0.1491,-11.9540,-0.7700,-101.8550,
8.813272,-0.0719,0.0412,0.2985,-0.3183,-0.0531,-0.1277,-11.9540,-0.7700,-101.8550,
8.833819,-0.0719,0.0412,0.2985,-0.2480,-0.0709,-0.1179,-11.9540,-0.7700,-101.8550,
8.852537,-0.0719,0.0412,0.2985,-0.1185,-0.0690,-0.0757,-11.9540,-0.7700,-101.8550,
8.857558,-0.0719,0.0412,0.2985,-0.1185,-0.0690,-0.0757,-11.7470,0.5370,-101.4200,
8.872910,-0.0719,0.0412,0.2985,-0.1185,-0.0690,-0.0757,-11.7470,0.5370,-101.4200,
8.873499,0.0201,0.1635,0.8153,-0.1185,-0.0690,-0.0757,-11.7470,0.5370,-101.4200,
8.873958,0.0201,0.1635,0.8153,0.0458,-0.0843,-0.0550,-11.7470,0.5370,-101.4200,
8.893409,0.0201,0.1635,0.8153,0.1869,-0.0880,-0.0379,-11.7470,0.5370,-101.4200,
8.912711,0.0201,0.1635,0.8153,0.2431,-0.1228,-0.0825,-11.7470,0.5370,-101.4200,
8.917930,0.0201,0.1635,0.8153,0.2431,-0.1228,-0.0825,-12.2480,0.1170,-102.0780,
8.933764,0.0201,0.1635,0.8153,0.2431,-0.1228,-0.0825,-12.2480,0.1170,-102.0780,
8.934375,0.1659,0.4000,0.3772,0.2431,-0.1228,-0.0825,-12.2480,0.1170,-102.0780,
8.934774,0.1659,0.4000,0.3772,0.2144,-0.1307,-0.1417,-12.2480,0.1170,-102.0780,
8.952793,0.1659,0.4000,0.3772,0.1552,-0.0874,-0.1393,-12.2480,0.1170,-102.0780,
8.972353,0.1659,0.4000,0.3772,0.0990,-0.0440,-0.0745,-12.2480,0.1170,-102.0780,
8.977254,0.1659,0.4000,0.3772,0.0990,-0.0440,-0.0745,-11.9620,-0.6910,-103.7320,
8.992857,0.1659,0.4000,0.3772,0.0990,-0.0440,-0.0745,-11.9620,-0.6910,-103.7320,
8.993489,-0.1468,0.1915,0.3194,0.0990,-0.0440,-0.0745,-11.9620,-0.6910,-103.7320,
8.993962,-0.1468,0.1915,0.3194,0.0434,-0.0690,-0.0373,-11.9620,-0.6910,-103.7320,
9.012669,-0.1468,0.1915,0.3194,-0.0446,-0.1045,-0.0580,-11.9620,-0.6910,-103.7320,
9.033743,-0.1468,0.1915,0.3194,-0.0874,-0.0776,-0.0434,-11.9620,-0.6910,-103.7320,
9.039212,-0.1468,0.1915,0.3194,-0.0874,-0.0776,-0.0434,-11.3050,-1.2760,-104.6180,
9.052642,-0.1468,0.1915,0.3194,-0.0874,-0.0776,-0.0434,-11.3050,-1.2760,-104.6180,
9.053374,-0.1462,-0.0009,1.2153,-0.0874,-0.0776,-0.0434,-11.3050,-1.2760,-104.6180,
9.053888,-0.1462,-0.0009,1.2153,-0.0336,-0.0324,0.0086,-11.3050,-1.2760,-104.6180,
9.072847,-0.1462,-0.0009,1.2153,0.1326,0.0880,0.0898,-11.3050,-1.2760,-104.6180,
9.092855,-0.1462,-0.0009,1.2153,0.2529,0.0837,0.1020,-11.3050,-1.2760,-104.6180,
9.098543,-0.1462,-0.0009,1.2153,0.2529,0.0837,0.1020,-11.8770,-1.0570,-104.7250,
9.112842,-0.1462,-0.0009,1.2153,0.2529,0.0837,0.1020,-11.8770,-1.0570,-104.7250,
9.113161,0.8702,-0.0793,0.1701,0.2529,0.0837,0.1020,-11.8770,-1.0570,-104.7250,
9.113468,0.8702,-0.0793,0.1701,0.2260,-0.0287,-0.0263,-11.8770,-1.0570,-104.7250,
9.132724,0.8702,-0.0793,0.1701,0.0397,-0.1472,-0.2633,-11.8770,-1.0570,-104.7250,
9.152854,0.8702,-0.0793,0.1701,-0.1930,-0.1240,-0.3903,-11.8770,-1.0570,-104.7250,
9.157593,0.8702,-0.0793,0.1701,-0.1930,-0.1240,-0.3903,-11.4960,-0.7370,-103.6250,
9.172780,0.8702,-0.0793,0.1701,-0.1930,-0.1240,-0.3903,-11.4960,-0.7370,-103.6250,
9.173346,0.5323,-1.1403,0.3546,-0.1930,-0.1240,-0.3903,-11.4960,-0.7370,-103.6250,
9.173751,0.5323,-1.1403,0.3546,-0.2944,-0.0232,-0.3598,-11.4960,-0.7370,-103.6250,
9.193031,0.5323,-1.1403,0.3546,-0.2963,0.0745,-0.2596,-11.4960,-0.7370,-103.6250,
9.217682,0.5323,-1.1403,0.3546,-0.2963,0.0745,-0.2596,-10.8120,-0.9510,-104.2910,
9.218532,0.5323,-1.1403,0.3546,-0.2059,0.1814,-0.1552,-10.8120,-0.9510,-104.2910,
9.237855,0.5323,-1.1403,0.3546,-0.2059,0.1814,-0.1552,-10.8120,-0.9510,-104.2910,
9.238413,0.2598,-1.2134,0.5737,-0.2059,0.1814,-0.1552,-10.8120,-0.9510,-104.2910,
9.238918,0.2598,-1.2134,0.5737,-0.0397,0.1637,-0.0727,-10.8120,-0.9510,-104.2910,
9.252748,0.2598,-1.2134,0.5737,0.1698,0.0116,-0.0104,-10.8120,-0.9510,-104.2910,
9.272690,0.2598,-1.2134,0.5737,0.3195,-0.0623,0.0263,-10.8120,-0.9510,-104.2910,
9.278242,0.2598,-1.2134,0.5737,0.3195,-0.0623,0.0263,-12.9750,-1.8860,-103.0580,
9.292654,0.2598,-1.2134,0.5737,0.3195,-0.0623,0.0263,-12.9750,-1.8860,-103.0580,
9.293170,0.9942,-0.7105,-0.3800,0.3195,-0.0623,0.0263,-12.9750,-1.8860,-103.0580,
9.293544,0.9942,-0.7105,-0.3800,0.3421,-0.0861,-0.0220,-12.9750,-1.8860,-103.0580,
9.312904,0.9942,-0.7105,-0.3800,0.2352,-0.0916,-0.1411,-12.9750,-1.8860,-103.0580,
9.332824,0.9942,-0.7105,-0.3800,0.0403,-0.1252,-0.2364,-12.9750,-1.8860,-103.0580,
9.337355,0.9942,-0.7105,-0.3800,0.0403,-0.1252,-0.2364,-14.0690,-1.0540,-99.9630,
9.352973,0.9942,-0.7105,-0.3800,0.0403,-0.1252,-0.2364,-14.0690,-1.0540,-99.9630,
9.353657,0.5692,-1.1881,-0.7570,0.0403,-0.1252,-0.2364,-14.0690,-1.0540,-99.9630,
9.354121,0.5692,-1.1881,-0.7570,-0.1881,-0.1014,-0.2419,-14.0690,-1.0540,-99.9630,
9.372558,0.5692,-1.1881,-0.7570,-0.2743,0.0299,-0.1338,-14.0690,-1.0540,-99.9630,
9.392910,0.5692,-1.1881,-0.7570,-0.1998,0.1155,0.0458,-14.0690,-1.0540,-99.9630,
9.398973,0.5692,-1.1881,-0.7570,-0.1998,0.1155,0.0458,-13.6290,0.1010,-98.3150,
9.414397,0.5692,-1.1881,-0.7570,-0.1998,0.1155,0.0458,-13.6290,0.1010,-98.3150,
9.414924,0.4739,-0.7441,-0.3807,-0.1998,0.1155,0.0458,-13.6290,0.1010,-98.3150,
9.415365,0.4739,-0.7441,-0.3807,-0.0244,0.1191,0.1808,-13.6290,0.1010,-98.3150,
9.432986,0.4739,-0.7441,-0.3807,0.1020,0.0794,0.1564,-13.6290,0.1010,-98.3150,
9.452527,0.4739,-0.7441,-0.3807,0.1350,-0.0012,0.0336,-13.6290,0.1010,-98.3150,
9.457609,0.4739,-0.7441,-0.3807,0.1350,-0.0012,0.0336,-13.4680,-0.8130,-100.0790,
9.472837,0.4739,-0.7441,-0.3807,0.1350,-0.0012,0.0336,-13.4680,-0.8130,-100.0790,
9.473351,1.0070,-0.0689,-1.3138,0.1350,-0.0012,0.0336,-13.4680,-0.8130,-100.0790,
9.473940,1.0070,-0.0689,-1.3138,0.0751,-0.0623,-0.0892,-13.4680,-0.8130,-100.0790,
9.492745,1.0070,-0.0689,-1.3138,-0.0904,-0.1081,-0.1888,-13.4680,-0.8130,-100.0790,
9.514198,1.0070,-0.0689,-1.3138,-0.2688,-0.0788,-0.1979,-13.4680,-0.8130,-100.0790,
9.518011,1.0070,-0.0689,-1.3138,-0.2688,-0.0788,-0.1979,-12.3050,-0.8010,-101.4110,
9.532863,1.0070,-0.0689,-1.3138,-0.2688,-0.0788,-0.1979,-12.3050,-0.8010,-101.4110,
9.534134,0.5465,-0.2428,-0.8943,-0.2688,-0.0788,-0.1979,-12.3050,-0.8010,-101.4110,
9.534446,0.5465,-0.2428,-0.8943,-0.3793,-0.0171,-0.1344,-12.3050,-0.8010,-101.4110,
9.552827,0.5465,-0.2428,-0.8943,-0.4233,-0.0244,-0.1100,-12.3050,-0.8010,-101.4110,
9.572796,0.5465,-0.2428,-0.8943,-0.4575,-0.0483,-0.1466,-12.3050,-0.8010,-101.4110,
9.577372,0.5465,-0.2428,-0.8943,-0.4575,-0.0483,-0.1466,-11.3940,0.3990,-99.8770,
9.593358,0.5465,-0.2428,-0.8943,-0.4575,-0.0483,-0.1466,-11.3940,0.3990,-99.8770,
9.593891,-0.1549,-0.0639,0.0366,-0.4575,-0.0483,-0.1466,-11.3940,0.3990,-99.8770,
9.594303,-0.1549,-0.0639,0.0366,-0.4844,-0.0617,-0.1680,-11.3940,0.3990,-99.8770,
9.612647,-0.1549,-0.0639,0.0366,-0.4429,-0.0489,-0.0880,-11.3940,0.3990,-99.8770,
9.633077,-0.1549,-0.0639,0.0366,-0.2847,-0.0116,0.0568,-11.3940,0.3990,-99.8770,
9.637460,-0.1549,-0.0639,0.0366,-0.2847,-0.0116,0.0568,-11.4780,0.8520,-99.4360,
9.652637,-0.1549,-0.0639,0.0366,-0.2847,-0.0116,0.0568,-11.4780,0.8520,-99.4360,
9.653098,-0.1285,0.0890,0.9913,-0.2847,-0.0116,0.0568,-11.4780,0.8520,-99.4360,
9.653429,-0.1285,0.0890,0.9913,-0.0904,0.0800,0.1515,-11.4780,0.8520,-99.4360,
9.672820,-0.1285,0.0890,0.9913,0.0837,0.0709,0.1949,-11.4780,0.8520,-99.4360,
9.692493,-0.1285,0.0890,0.9913,0.2401,0.0611,0.2340,-11.4780,0.8520,-99.4360,
9.697922,-0.1285,0.0890,0.9913,0.2401,0.0611,0.2340,-12.8430,1.5410,-100.2030,
9.713139,-0.1285,0.0890,0.9913,0.2401,0.0611,0.2340,-12.8430,1.5410,-100.2030,
9.713492,0.1285,0.3659,0.7460,0.2401,0.0611,0.2340,-12.8430,1.5410,-100.2030,
9.713937,0.1285,0.3659,0.7460,0.2987,0.0183,0.2309,-12.8430,1.5410,-100.2030,
9.733096,0.1285,0.3659,0.7460,0.2877,0.0104,0.1900,-12.8430,1.5410,-100.2030,
9.753461,0.1285,0.3659,0.7460,0.2553,0.0550,0.1698,-12.8430,1.5410,-100.2030,
9.757979,0.1285,0.3659,0.7460,0.2553,0.0550,0.1698,-13.8760,1.8980,-100.4180,
9.772643,0.1285,0.3659,0.7460,0.2553,0.0550,0.1698,-13.8760,1.8980,-100.4180,
9.773263,0.0616,-0.0435,0.8485,0.2553,0.0550,0.1698,-13.8760,1.8980,-100.4180,
9.773728,0.0616,-0.0435,0.8485,0.2321,0.1252,0.1839,-13.8760,1.8980,-100.4180,
9.795915,0.0616,-0.0435,0.8485,0.2462,0.2315,0.2364,-13.8760,1.8980,-100.4180,
9.812736,0.0616,-0.0435,0.8485,0.2883,0.3238,0.3036,-13.8760,1.8980,-100.4180,
9.817400,0.0616,-0.0435,0.8485,0.2883,0.3238,0.3036,-13.1080,1.1440,-100.7520,
9.833021,0.0616,-0.0435,0.8485,0.2883,0.3238,0.3036,-13.1080,1.1440,-100.7520,
9.833500,-0.4195,-0.3334,0.6932,0.2883,0.3238,0.3036,-13.1080,1.1440,-100.7520,
9.833835,-0.4195,-0.3334,0.6932,0.3372,0.3195,0.3329,-13.1080,1.1440,-100.7520,
9.852730,-0.4195,-0.3334,0.6932,0.3818,0.2144,0.3635,-13.1080,1.1440,-100.7520,
9.872892,-0.4195,-0.3334,0.6932,0.4276,0.1833,0.4270,-13.1080,1.1440,-100.7520,
9.877607,-0.4195,-0.3334,0.6932,0.4276,0.1833,0.4270,-11.8210,-0.4840,-102.1890,
9.892914,-0.4195,-0.3334,0.6932,0.4276,0.1833,0.4270,-11.8210,-0.4840,-102.1890,
9.893467,-0.1184,0.2831,-0.0555,0.4276,0.1833,0.4270,-11.8210,-0.4840,-102.1890,
9.893918,-0.1184,0.2831,-0.0555,0.4343,0.2480,0.4777,-11.8210,-0.4840,-102.1890,
9.913119,-0.1184,0.2831,-0.0555,0.3195,0.2987,0.4343,-11.8210,-0.4840,-102.1890,
9.933114,-0.1184,0.2831,-0.0555,0.0806,0.1729,0.2847,-11.8210,-0.4840,-102.1890,
9.937565,-0.1184,0.2831,-0.0555,0.0806,0.1729,0.2847,-11.6630,-1.5740,-102.8470,
9.952975,-0.1184,0.2831,-0.0555,0.0806,0.1729,0.2847,-11.6630,-1.5740,-102.8470,
9.953528,0.6943,-0.0122,-0.9473,0.0806,0.1729,0.2847,-11.6630,-1.5740,-102.8470,
9.953904,0.6943,-0.0122,-0.9473,-0.2407,0.0116,0.0922,-11.6630,-1.5740,-102.8470,
9.972789,0.6943,-0.0122,-0.9473,-0.5113,-0.0605,-0.0287,-11.6630,-1.5740,-102.8470,
9.993039,0.6943,-0.0122,-0.9473,-0.6206,-0.0544,-0.0385,-11.6630,-1.5740,-102.8470,
9.998108,0.6943,-0.0122,-0.9473,-0.6206,-0.0544,-0.0385,-10.5100,-1.6580,-104.6210,
10.013762,0.6943,-0.0122,-0.9473,-0.6206,-0.0544,-0.0385,-10.5100,-1.6580,-104.6210,
10.014495,-0.3537,-0.9929,0.8480,-0.6206,-0.0544,-0.0385,-10.5100,-1.6580,-104.6210,
10.015340,-0.3537,-0.9929,0.8480,-0.5510,-0.0544,0.0696,-10.5100,-1.6580,-104.6210,
10.033298,-0.3537,-0.9929,0.8480,-0.3012,-0.0421,0.2382,-10.5100,-1.6580,-104.6210,
10.053214,-0.3537,-0.9929,0.8480,0.0464,-0.0342,0.3519,-10.5100,-1.6580,-104.6210,
10.057771,-0.3537,-0.9929,0.8480,0.0464,-0.0342,0.3519,-10.3960,-1.6510,-105.1740,
10.073218,-0.3537,-0.9929,0.8480,0.0464,-0.0342,0.3519,-10.3960,-1.6510,-105.1740,
10.073850,0.2714,-0.5149,0.6429,0.0464,-0.0342,0.3519,-10.3960,-1.6510,-105.1740,
10.074389,0.2714,-0.5149,0.6429,0.2963,-0.1051,0.3079,-10.3960,-1.6510,-105.1740,
10.092943,0.2714,-0.5149,0.6429,0.3488,-0.1625,0.1319,-10.3960,-1.6510,-105.1740,
10.113466,0.2714,-0.5149,0.6429,0.2602,-0.1264,0.0153,-10.3960,-1.6510,-105.1740,
10.118122,0.2714,-0.5149,0.6429,0.2602,-0.1264,0.0153,-10.3540,-1.0920,-104.5140,
10.132952,0.2714,-0.5149,0.6429,0.2602,-0.1264,0.0153,-10.3540,-1.0920,-104.5140,
10.133513,-0.1779,-0.3918,-0.8584,0.2602,-0.1264,0.0153,-10.3540,-1.0920,-104.5140,
10.133976,-0.1779,-0.3918,-0.8584,0.1106,-0.0434,-0.0171,-10.3540,-1.0920,-104.5140,
10.153204,-0.1779,-0.3918,-0.8584,-0.0702,-0.0012,-0.0354,-10.3540,-1.0920,-104.5140,
10.173057,-0.1779,-0.3918,-0.8584,-0.2242,0.0128,-0.0415,-10.3540,-1.0920,-104.5140,
10.178072,-0.1779,-0.3918,-0.8584,-0.2242,0.0128,-0.0415,-10.0250,-1.3400,-105.2880,
10.193413,-0.1779,-0.3918,-0.8584,-0.2242,0.0128,-0.0415,-10.0250,-1.3400,-105.2880,
10.194051,-0.3413,-0.4301,-0.3769,-0.2242,0.0128,-0.0415,-10.0250,-1.3400,-105.2880,
10.194424,-0.3413,-0.4301,-0.3769,-0.2700,0.0825,-0.0305,-10.0250,-1.3400,-105.2880,
10.218866,-0.3413,-0.4301,-0.3769,-0.2083,0.1063,-0.0336,-10.0250,-1.3400,-105.2880,
10.233726,-0.3413,-0.4301,-0.3769,-0.0825,0.0886,-0.0281,-10.0250,-1.3400,-105.2880,
10.237503,-0.3413,-0.4301,-0.3769,-0.0825,0.0886,-0.0281,-10.9560,-1.2470,-105.2820,
10.252767,-0.3413,-0.4301,-0.3769,-0.0825,0.0886,-0.0281,-10.9560,-1.2470,-105.2820,
10.253286,-0.1145,0.0157,-0.3305,-0.0825,0.0886,-0.0281,-10.9560,-1.2470,-105.2820,
10.253630,-0.1145,0.0157,-0.3305,0.0446,-0.0006,-0.0324,-10.9560,-1.2470,-105.2820,
10.273119,-0.1145,0.0157,-0.3305,0.1277,-0.0800,-0.0544,-10.9560,-1.2470,-105.2820,
10.293038,-0.1145,0.0157,-0.3305,0.1405,-0.0751,-0.0605,-10.9560,-1.2470,-105.2820,
10.297810,-0.1145,0.0157,-0.3305,0.1405,-0.0751,-0.0605,-9.8500,-0.7550,-102.6420,
10.313342,-0.1145,0.0157,-0.3305,0.1405,-0.0751,-0.0605,-9.8500,-0.7550,-102.6420,
10.313880,0.1188,0.1381,-0.8799,0.1405,-0.0751,-0.0605,-9.8500,-0.7550,-102.6420,
10.314281,0.1188,0.1381,-0.8799,0.0648,-0.0709,-0.0929,-9.8500,-0.7550,-102.6420,
10.333537,0.1188,0.1381,-0.8799,-0.0434,-0.0617,-0.1216,-9.8500,-0.7550,-102.6420,
10.353266,0.1188,0.1381,-0.8799,-0.1350,-0.0782,-0.1503,-9.8500,-0.7550,-102.6420,
10.357950,0.1188,0.1381,-0.8799,-0.1350,-0.0782,-0.1503,-9.2820,-1.0650,-102.3130,
10.373194,0.1188,0.1381,-0.8799,-0.1350,-0.0782,-0.1503,-9.2820,-1.0650,-102.3130,
10.373774,0.0901,0.1386,-0.2132,-0.1350,-0.0782,-0.1503,-9.2820,-1.0650,-102.3130,
10.374214,0.0901,0.1386,-0.2132,-0.1772,-0.1148,-0.1912,-9.2820,-1.0650,-102.3130,
10.393270,0.0901,0.1386,-0.2132,-0.1698,-0.1142,-0.2169,-9.2820,-1.0650,-102.3130,
10.418690,0.0901,0.1386,-0.2132,-0.1350,-0.1179,-0.2279,-9.2820,-1.0650,-102.3130,
10.419282,0.0901,0.1386,-0.2132,-0.1350,-0.1179,-0.2279,-10.4540,-0.9990,-102.9680,
10.434536,0.0901,0.1386,-0.2132,-0.1350,-0.1179,-0.2279,-10.4540,-0.9990,-102.9680,
10.435137,-0.0887,-0.0127,0.5658,-0.1350,-0.1179,-0.2279,-10.4540,-0.9990,-102.9680,
10.435584,-0.0887,-0.0127,0.5658,-0.0531,-0.0922,-0.1796,-10.4540,-0.9990,-102.9680,
10.453406,-0.0887,-0.0127,0.5658,0.0690,-0.0739,-0.1222,-10.4540,-0.9990,-102.9680,
10.473604,-0.0887,-0.0127,0.5658,0.2101,-0.0476,-0.0867,-10.4540,-0.9990,-102.9680,
10.478015,-0.0887,-0.0127,0.5658,0.2101,-0.0476,-0.0867,-11.2150,-1.8110,-103.5120,
10.493141,-0.0887,-0.0127,0.5658,0.2101,-0.0476,-0.0867,-11.2150,-1.8110,-103.5120,
10.493862,0.1259,0.3375,0.1237,0.2101,-0.0476,-0.0867,-11.2150,-1.8110,-103.5120,
10.494402,0.1259,0.3375,0.1237,0.2688,-0.0501,-0.0874,-11.2150,-1.8110,-103.5120,
10.526972,0.1259,0.3375,0.1237,0.2578,-0.0690,-0.1051,-11.2150,-1.8110,-103.5120,
10.557726,0.1259,0.3375,0.1237,0.2578,-0.0690,-0.1051,-11.2150,-1.8110,-103.5120,
10.558440,-0.0611,0.2008,0.0898,0.2578,-0.0690,-0.1051,-11.2150,-1.8110,-103.5120,
10.558765,-0.0611,0.2008,0.0898,0.2578,-0.0690,-0.1051,-11.7430,-0.9440,-103.5120,
10.559080,-0.0611,0.2008,0.0898,0.1826,-0.1179,-0.1362,-11.7430,-0.9440,-103.5120,
10.559280,-0.0611,0.2008,0.0898,0.0892,-0.1607,-0.1411,-11.7430,-0.9440,-103.5120,
10.577808,-0.0611,0.2008,0.0898,0.0458,-0.1448,-0.0782,-11.7430,-0.9440,-103.5120,
10.593515,-0.0611,0.2008,0.0898,0.0617,-0.1026,-0.0391,-11.7430,-0.9440,-103.5120,
10.599163,-0.0611,0.2008,0.0898,0.0617,-0.1026,-0.0391,-12.3720,0.1870,-103.6230,
10.616151,-0.0611,0.2008,0.0898,0.0617,-0.1026,-0.0391,-12.3720,0.1870,-103.6230,
10.616721,0.1148,0.1596,0.6862,0.0617,-0.1026,-0.0391,-12.3720,0.1870,-103.6230,
10.617213,0.1148,0.1596,0.6862,0.0941,-0.1130,-0.0079,-12.3720,0.1870,-103.6230,
10.633319,0.1148,0.1596,0.6862,0.0983,-0.1833,-0.0385,-12.3720,0.1870,-103.6230,
10.653046,0.1148,0.1596,0.6862,0.0770,-0.1741,-0.1588,-12.3720,0.1870,-103.6230,
10.661469,0.1148,0.1596,0.6862,0.0770,-0.1741,-0.1588,-12.1970,-0.5400,-105.1670,
10.673320,0.1148,0.1596,0.6862,0.0770,-0.1741,-0.1588,-12.1970,-0.5400,-105.1670,
10.673896,0.5756,-0.0850,0.3123,0.0770,-0.1741,-0.1588,-12.1970,-0.5400,-105.1670,
10.674399,0.5756,-0.0850,0.3123,0.0183,-0.1362,-0.2584,-12.1970,-0.5400,-105.1670,
10.693271,0.5756,-0.0850,0.3123,-0.0770,-0.1356,-0.2902,-12.1970,-0.5400,-105.1670,
10.713741,0.5756,-0.0850,0.3123,-0.1955,-0.1326,-0.2957,-12.1970,-0.5400,-105.1670,
10.718091,0.5756,-0.0850,0.3123,-0.1955,-0.1326,-0.2957,-12.5050,-1.7570,-104.1660,
10.736789,0.5756,-0.0850,0.3123,-0.1955,-0.1326,-0.2957,-12.5050,-1.7570,-104.1660,
10.737388,0.7013,-0.5845,0.5347,-0.1955,-0.1326,-0.2957,-12.5050,-1.7570,-104.1660,
10.737875,0.7013,-0.5845,0.5347,-0.2773,-0.0788,-0.3244,-12.5050,-1.7570,-104.1660,
10.753492,0.7013,-0.5845,0.5347,-0.2755,0.0061,-0.3384,-12.5050,-1.7570,-104.1660,
10.773278,0.7013,-0.5845,0.5347,-0.1674,0.0886,-0.2932,-12.5050,-1.7570,-104.1660,
10.778278,0.7013,-0.5845,0.5347,-0.1674,0.0886,-0.2932,-13.0790,-3.4570,-103.0510,
10.793430,0.7013,-0.5845,0.5347,-0.1674,0.0886,-0.2932,-13.0790,-3.4570,-103.0510,
10.793984,-0.2022,-0.2897,0.7979,-0.1674,0.0886,-0.2932,-13.0790,-3.4570,-103.0510,
10.794365,-0.2022,-0.2897,0.7979,0.0006,0.0812,-0.2004,-13.0790,-3.4570,-103.0510,
10.813964,-0.2022,-0.2897,0.7979,0.2034,-0.0122,-0.1142,-13.0790,-3.4570,-103.0510,
10.833480,-0.2022,-0.2897,0.7979,0.4178,-0.0385,-0.0531,-13.0790,-3.4570,-103.0510,
10.838234,-0.2022,-0.2897,0.7979,0.4178,-0.0385,-0.0531,-12.5730,-2.8590,-103.3880,
10.853458,-0.2022,-0.2897,0.7979,0.4178,-0.0385,-0.0531,-12.5730,-2.8590,-103.3880,
10.854050,0.2719,0.2986,-0.1090,0.4178,-0.0385,-0.0531,-12.5730,-2.8590,-103.3880,
10.854460,0.2719,0.2986,-0.1090,0.5034,0.0079,-0.0397,-12.5730,-2.8590,-103.3880,
10.873624,0.2719,0.2986,-0.1090,0.4966,0.0684,-0.0446,-12.5730,-2.8590,-103.3880,
10.893713,0.2719,0.2986,-0.1090,0.3751,0.0434,-0.1234,-12.5730,-2.8590,-103.3880,
10.898306,0.2719,0.2986,-0.1090,0.3751,0.0434,-0.1234,-13.2400,-0.6250,-102.7310,
10.914467,0.2719,0.2986,-0.1090,0.3751,0.0434,-0.1234,-13.2400,-0.6250,-102.7310,
10.914849,0.3388,0.0286,-1.4269,0.3751,0.0434,-0.1234,-13.2400,-0.6250,-102.7310,
10.915243,0.3388,0.0286,-1.4269,0.1460,-0.0195,-0.2608,-13.2400,-0.6250,-102.7310,
10.933803,0.3388,0.0286,-1.4269,-0.1625,-0.0745,-0.3897,-13.2400,-0.6250,-102.7310,
10.954567,0.3388,0.0286,-1.4269,-0.3299,0.0495,-0.3396,-13.2400,-0.6250,-102.7310,
10.959548,0.3388,0.0286,-1.4269,-0.3299,0.0495,-0.3396,-13.7810,-1.6880,-102.9430,
10.973520,0.3388,0.0286,-1.4269,-0.3299,0.0495,-0.3396,-13.7810,-1.6880,-102.9430,
10.974121,-0.7315,-0.1782,-0.6302,-0.3299,0.0495,-0.3396,-13.7810,-1.6880,-102.9430,
10.974486,-0.7315,-0.1782,-0.6302,-0.3543,0.1466,-0.2046,-13.7810,-1.6880,-102.9430,
10.993723,-0.7315,-0.1782,-0.6302,-0.2560,0.1112,-0.1100,-13.7810,-1.6880,-102.9430,
11.014008,-0.7315,-0.1782,-0.6302,-0.1136,-0.0446,-0.1032,-13.7810,-1.6880,-102.9430,
11.018858,-0.7315,-0.1782,-0.6302,-0.1136,-0.0446,-0.1032,-13.1350,-4.2890,-103.1580,
11.034096,-0.7315,-0.1782,-0.6302,-0.1136,-0.0446,-0.1032,-13.1350,-4.2890,-103.1580,
11.034606,0.0723,0.0632,-0.3411,-0.1136,-0.0446,-0.1032,-13.1350,-4.2890,-103.1580,
11.034903,0.0723,0.0632,-0.3411,-0.0238,-0.1497,-0.1503,-13.1350,-4.2890,-103.1580,
11.053332,0.0723,0.0632,-0.3411,0.0055,-0.0880,-0.1973,-13.1350,-4.2890,-103.1580,
11.073816,0.0723,0.0632,-0.3411,-0.0134,0.0110,-0.1991,-13.1350,-4.2890,-103.1580,
11.078742,0.0723,0.0632,-0.3411,-0.0134,0.0110,-0.1991,-12.7320,-3.5160,-103.1640,
11.094125,0.0723,0.0632,-0.3411,-0.0134,0.0110,-0.1991,-12.7320,-3.5160,-103.1640,
11.094619,-0.1640,-0.0564,-0.6829,-0.0134,0.0110,-0.1991,-12.7320,-3.5160,-103.1640,
11.094981,-0.1640,-0.0564,-0.6829,-0.0470,0.0922,-0.1338,-12.7320,-3.5160,-103.1640,
11.114082,-0.1640,-0.0564,-0.6829,-0.0776,0.0715,-0.0635,-12.7320,-3.5160,-103.1640,
11.133867,-0.1640,-0.0564,-0.6829,-0.1008,0.0104,-0.0330,-12.7320,-3.5160,-103.1640,
11.138465,-0.1640,-0.0564,-0.6829,-0.1008,0.0104,-0.0330,-12.9950,-2.0790,-104.0510,
11.154013,-0.1640,-0.0564,-0.6829,-0.1008,0.0104,-0.0330,-12.9950,-2.0790,-104.0510,
11.154607,0.0098,0.0786,-0.1877,-0.1008,0.0104,-0.0330,-12.9950,-2.0790,-104.0510,
11.154951,0.0098,0.0786,-0.1877,-0.0929,0.0122,-0.0312,-12.9950,-2.0790,-104.0510,
11.173637,0.0098,0.0786,-0.1877,-0.0330,0.0678,-0.0110,-12.9950,-2.0790,-104.0510,
11.194347,0.0098,0.0786,-0.1877,0.0318,0.0629,0.0189,-12.9950,-2.0790,-104.0510,
11.198356,0.0098,0.0786,-0.1877,0.0318,0.0629,0.0189,-13.2290,-2.1000,-103.8290,
11.213841,0.0098,0.0786,-0.1877,0.0318,0.0629,0.0189,-13.2290,-2.1000,-103.8290,
11.214498,0.0103,0.1541,-0.2234,0.0318,0.0629,0.0189,-13.2290,-2.1000,-103.8290,
11.214890,0.0103,0.1541,-0.2234,0.0788,-0.0104,0.0391,-13.2290,-2.1000,-103.8290,
11.233944,0.0103,0.1541,-0.2234,0.0788,-0.0360,0.0434,-13.2290,-2.1000,-103.8290,
11.253667,0.0103,0.1541,-0.2234,0.0458,0.0409,0.0421,-13.2290,-2.1000,-103.8290,
11.258135,0.0103,0.1541,-0.2234,0.0458,0.0409,0.0421,-13.0070,-2.3500,-103.2770,
11.273941,0.0103,0.1541,-0.2234,0.0458,0.0409,0.0421,-13.0070,-2.3500,-103.2770,
11.274446,-0.0838,0.2247,-0.1707,0.0458,0.0409,0.0421,-13.0070,-2.3500,-103.2770,
11.274854,-0.0838,0.2247,-0.1707,0.0165,0.0922,0.0690,-13.0070,-2.3500,-103.2770,
11.293598,-0.0838,0.2247,-0.1707,0.0110,0.0745,0.1216,-13.0070,-2.3500,-103.2770,
11.314211,-0.0838,0.2247,-0.1707,0.0263,0.0208,0.1368,-13.0070,-2.3500,-103.2770,
11.318896,-0.0838,0.2247,-0.1707,0.0263,0.0208,0.1368,-13.0980,-2.1620,-101.2900,
11.333962,-0.0838,0.2247,-0.1707,0.0263,0.0208,0.1368,-13.0980,-2.1620,-101.2900,
11.334509,0.1068,0.1862,0.1314,0.0263,0.0208,0.1368,-13.0980,-2.1620,-101.2900,
11.334956,0.1068,0.1862,0.1314,0.0666,0.0397,0.1436,-13.0980,-2.1620,-101.2900,
11.354090,0.1068,0.1862,0.1314,0.0849,0.0391,0.1350,-13.0980,-2.1620,-101.2900,
11.373646,0.1068,0.1862,0.1314,0.0782,0.0092,0.1216,-13.0980,-2.1620,-101.2900,
11.378530,0.1068,0.1862,0.1314,0.0782,0.0092,0.1216,-13.1310,-0.9680,-100.7430,
11.394174,0.1068,0.1862,0.1314,0.0782,0.0092,0.1216,-13.1310,-0.9680,-100.7430,
11.394686,-0.1388,-0.0101,0.3571,0.0782,0.0092,0.1216,-13.1310,-0.9680,-100.7430,
11.395067,-0.1388,-0.0101,0.3571,0.0751,0.0348,0.1264,-13.1310,-0.9680,-100.7430,
11.413916,-0.1388,-0.0101,0.3571,0.0812,0.0751,0.1851,-13.1310,-0.9680,-100.7430,
11.434129,-0.1388,-0.0101,0.3571,0.0635,0.0470,0.1985,-13.1310,-0.9680,-100.7430,
11.438732,-0.1388,-0.0101,0.3571,0.0635,0.0470,0.1985,-13.4240,0.0060,-101.6280,
11.453688,-0.1388,-0.0101,0.3571,0.0635,0.0470,0.1985,-13.4240,0.0060,-101.6280,
11.454147,-0.5529,-0.0173,0.9970,0.0635,0.0470,0.1985,-13.4240,0.0060,-101.6280,
11.454499,-0.5529,-0.0173,0.9970,0.0562,0.0855,0.2077,-13.4240,0.0060,-101.6280,
11.474083,-0.5529,-0.0173,0.9970,0.0690,0.1466,0.2566,-13.4240,0.0060,-101.6280,
11.494670,-0.5529,-0.0173,0.9970,0.0531,0.0922,0.2969,-13.4240,0.0060,-101.6280,
11.500354,-0.5529,-0.0173,0.9970,0.0531,0.0922,0.2969,-13.4610,-0.6330,-100.7420,
11.515547,-0.5529,-0.0173,0.9970,0.0531,0.0922,0.2969,-13.4610,-0.6330,-100.7420,
11.516486,0.3063,-0.1067,0.4506,0.0531,0.0922,0.2969,-13.4610,-0.6330,-100.7420,
11.516973,0.3063,-0.1067,0.4506,-0.0385,0.0281,0.2248,-13.4610,-0.6330,-100.7420,
11.534339,0.3063,-0.1067,0.4506,-0.2505,-0.0287,0.0006,-13.4610,-0.6330,-100.7420,
11.554452,0.3063,-0.1067,0.4506,-0.4355,0.0055,-0.1301,-13.4610,-0.6330,-100.7420,
11.558754,0.3063,-0.1067,0.4506,-0.4355,0.0055,-0.1301,-13.0890,-0.4940,-99.1990,
11.574262,0.3063,-0.1067,0.4506,-0.4355,0.0055,-0.1301,-13.0890,-0.4940,-99.1990,
11.574984,-0.9283,-1.1824,0.9895,-0.4355,0.0055,-0.1301,-13.0890,-0.4940,-99.1990,
11.575497,-0.9283,-1.1824,0.9895,-0.4404,0.1130,-0.0336,-13.0890,-0.4940,-99.1990,
11.594298,-0.9283,-1.1824,0.9895,-0.2547,0.1503,0.1643,-13.0890,-0.4940,-99.1990,
11.613848,-0.9283,-1.1824,0.9895,0.0238,0.0806,0.3195,-13.0890,-0.4940,-99.1990,
11.618620,-0.9283,-1.1824,0.9895,0.0238,0.0806,0.3195,-12.0150,-0.0340,-100.7540,
11.634178,-0.9283,-1.1824,0.9895,0.0238,0.0806,0.3195,-12.0150,-0.0340,-100.7540,
11.634736,-0.5561,-0.9437,0.5525,0.0238,0.0806,0.3195,-12.0150,-0.0340,-100.7540,
11.635125,-0.5561,-0.9437,0.5525,0.2615,-0.0501,0.3305,-12.0150,-0.0340,-100.7540,
11.653916,-0.5561,-0.9437,0.5525,0.3873,-0.1289,0.2633,-12.0150,-0.0340,-100.7540,
11.674139,-0.5561,-0.9437,0.5525,0.3885,-0.1600,0.2028,-12.0150,-0.0340,-100.7540,
11.679013,-0.5561,-0.9437,0.5525,0.3885,-0.1600,0.2028,-10.9710,-0.0350,-102.3060,
11.693655,-0.5561,-0.9437,0.5525,0.3885,-0.1600,0.2028,-10.9710,-0.0350,-102.3060,
11.694154,-0.1713,-0.7202,-0.8957,0.3885,-0.1600,0.2028,-10.9710,-0.0350,-102.3060,
11.694524,-0.1713,-0.7202,-0.8957,0.2401,-0.1869,0.1368,-10.9710,-0.0350,-102.3060,
11.714143,-0.1713,-0.7202,-0.8957,-0.0238,-0.1539,0.0440,-10.9710,-0.0350,-102.3060,
11.733961,-0.1713,-0.7202,-0.8957,-0.2743,-0.0367,0.0214,-10.9710,-0.0350,-102.3060,
11.738626,-0.1713,-0.7202,-0.8957,-0.2743,-0.0367,0.0214,-11.5700,-0.2730,-101.8600,
11.754244,-0.1713,-0.7202,-0.8957,-0.2743,-0.0367,0.0214,-11.5700,-0.2730,-101.8600,
11.754802,-0.5088,-0.8474,-0.2892,-0.2743,-0.0367,0.0214,-11.5700,-0.2730,-101.8600,
11.755271,-0.5088,-0.8474,-0.2892,-0.3989,0.0935,0.0385,-11.5700,-0.2730,-101.8600,
11.773804,-0.5088,-0.8474,-0.2892,-0.3629,0.1283,0.0544,-11.5700,-0.2730,-101.8600,
11.794242,-0.5088,-0.8474,-0.2892,-0.2162,0.0941,0.0672,-11.5700,-0.2730,-101.8600,
11.798986,-0.5088,-0.8474,-0.2892,-0.2162,0.0941,0.0672,-12.5640,0.6380,-101.9670,
11.814141,-0.5088,-0.8474,-0.2892,-0.2162,0.0941,0.0672,-12.5640,0.6380,-101.9670,
11.814763,-0.0916,-0.0210,0.0936,-0.2162,0.0941,0.0672,-12.5640,0.6380,-101.9670,
11.815179,-0.0916,-0.0210,0.0936,-0.0220,0.0373,0.0953,-12.5640,0.6380,-101.9670,
11.834284,-0.0916,-0.0210,0.0936,0.0971,-0.0550,0.0715,-12.5640,0.6380,-101.9670,
11.853752,-0.0916,-0.0210,0.0936,0.1319,-0.0867,0.0421,-12.5640,0.6380,-101.9670,
11.858605,-0.0916,-0.0210,0.0936,0.1319,-0.0867,0.0421,-13.1950,1.5950,-100.7530,
11.874162,-0.0916,-0.0210,0.0936,0.1319,-0.0867,0.0421,-13.1950,1.5950,-100.7530,
11.874734,0.2973,0.3003,-0.4232,0.1319,-0.0867,0.0421,-13.1950,1.5950,-100.7530,
11.875082,0.2973,0.3003,-0.4232,0.1051,-0.0293,0.0379,-13.1950,1.5950,-100.7530,
11.894155,0.2973,0.3003,-0.4232,0.0519,0.0617,0.0379,-13.1950,1.5950,-100.7530,
11.914959,0.2973,0.3003,-0.4232,-0.0128,0.0538,0.0049,-13.1950,1.5950,-100.7530,
11.918329,0.2973,0.3003,-0.4232,-0.0128,0.0538,0.0049,-11.9130,1.3600,-99.5460,
11.933883,0.2973,0.3003,-0.4232,-0.0128,0.0538,0.0049,-11.9130,1.3600,-99.5460,
11.934460,0.0359,0.1175,-0.3311,-0.0128,0.0538,0.0049,-11.9130,1.3600,-99.5460,
11.934848,0.0359,0.1175,-0.3311,-0.0367,0.0024,-0.0525,-11.9130,1.3600,-99.5460,
11.955143,0.0359,0.1175,-0.3311,0.0147,0.0006,-0.0672,-11.9130,1.3600,-99.5460,
11.974220,0.0359,0.1175,-0.3311,0.0629,-0.0165,-0.0641,-11.9130,1.3600,-99.5460,
11.978392,0.0359,0.1175,-0.3311,0.0629,-0.0165,-0.0641,-11.0190,0.8850,-101.2060,
11.994317,0.0359,0.1175,-0.3311,0.0629,-0.0165,-0.0641,-11.0190,0.8850,-101.2060,
11.994855,-0.1323,0.2518,-0.4020,0.0629,-0.0165,-0.0641,-11.0190,0.8850,-101.2060,
11.995280,-0.1323,0.2518,-0.4020,0.0696,-0.0605,-0.0483,-11.0190,0.8850,-101.2060,
12.013986,-0.1323,0.2518,-0.4020,0.0660,-0.0318,-0.0202,-11.0190,0.8850,-101.2060,
12.034235,-0.1323,0.2518,-0.4020,0.0696,-0.0214,0.0134,-11.0190,0.8850,-101.2060,
12.039205,-0.1323,0.2518,-0.4020,0.0696,-0.0214,0.0134,-11.7520,0.5320,-102.0830,
12.056126,-0.1323,0.2518,-0.4020,0.0696,-0.0214,0.0134,-11.7520,0.5320,-102.0830,
12.057627,0.0428,0.5103,-0.1898,0.0696,-0.0214,0.0134,-11.7520,0.5320,-102.0830,
12.058749,0.0428,0.5103,-0.1898,0.0629,-0.0922,-0.0092,-11.7520,0.5320,-102.0830,
12.074770,0.0428,0.5103,-0.1898,0.0684,-0.0947,-0.0531,-11.7520,0.5320,-102.0830,
12.094274,0.0428,0.5103,-0.1898,0.0861,-0.0709,-0.0837,-11.7520,0.5320,-102.0830,
12.099161,0.0428,0.5103,-0.1898,0.0861,-0.0709,-0.0837,-11.1290,0.9670,-100.9850,
12.115031,0.0428,0.5103,-0.1898,0.0861,-0.0709,-0.0837,-11.1290,0.9670,-100.9850,
12.115897,-0.0521,0.3154,0.0931,0.0861,-0.0709,-0.0837,-11.1290,0.9670,-100.9850,
12.116533,-0.0521,0.3154,0.0931,0.0812,-0.1063,-0.1038,-11.1290,0.9670,-100.9850,
12.134788,-0.0521,0.3154,0.0931,0.0580,-0.1216,-0.0977,-11.1290,0.9670,-100.9850,
12.155074,-0.0521,0.3154,0.0931,0.0458,-0.1093,-0.0525,-11.1290,0.9670,-100.9850,
12.159379,-0.0521,0.3154,0.0931,0.0458,-0.1093,-0.0525,-11.3980,0.3080,-99.6550,
12.175875,-0.0521,0.3154,0.0931,0.0458,-0.1093,-0.0525,-11.3980,0.3080,-99.6550,
12.176859,-0.0453,0.1308,0.6867,0.0458,-0.1093,-0.0525,-11.3980,0.3080,-99.6550,
12.177495,-0.0453,0.1308,0.6867,0.0501,-0.1100,-0.0128,-11.3980,0.3080,-99.6550,
12.195150,-0.0453,0.1308,0.6867,0.0782,-0.1497,-0.0220,-11.3980,0.3080,-99.6550,
12.214664,-0.0453,0.1308,0.6867,0.1179,-0.1796,-0.0849,-11.3980,0.3080,-99.6550,
12.219559,-0.0453,0.1308,0.6867,0.1179,-0.1796,-0.0849,-12.1350,-0.1340,-100.3110,
12.234976,-0.0453,0.1308,0.6867,0.1179,-0.1796,-0.0849,-12.1350,-0.1340,-100.3110,
12.235913,0.2138,-0.1489,1.2159,0.1179,-0.1796,-0.0849,-12.1350,-0.1340,-100.3110,
12.236714,0.2138,-0.1489,1.2159,0.1344,-0.2236,-0.1588,-12.1350,-0.1340,-100.3110,
12.255426,0.2138,-0.1489,1.2159,0.1460,-0.2107,-0.1448,-12.1350,-0.1340,-100.3110,
12.276238,0.2138,-0.1489,1.2159,0.2004,-0.1289,-0.0415,-12.1350,-0.1340,-100.3110,
12.279256,0.2138,-0.1489,1.2159,0.2004,-0.1289,-0.0415,-12.0870,0.6900,-101.1980,
12.294861,0.2138,-0.1489,1.2159,0.2004,-0.1289,-0.0415,-12.0870,0.6900,-101.1980,
12.295730,0.3002,-0.1459,0.5930,0.2004,-0.1289,-0.0415,-12.0870,0.6900,-101.1980,
12.296437,0.3002,-0.1459,0.5930,0.2187,-0.0403,0.0055,-12.0870,0.6900,-101.1980,
12.314981,0.3002,-0.1459,0.5930,0.1356,-0.0238,-0.0776,-12.0870,0.6900,-101.1980,
12.334691,0.3002,-0.1459,0.5930,-0.0599,-0.0318,-0.2657,-12.0870,0.6900,-101.1980,
12.340059,0.3002,-0.1459,0.5930,-0.0599,-0.0318,-0.2657,-13.1530,0.4960,-100.9690,
12.355616,0.3002,-0.1459,0.5930,-0.0599,-0.0318,-0.2657,-13.1530,0.4960,-100.9690,
12.356649,0.1607,-0.6492,0.3626,-0.0599,-0.0318,-0.2657,-13.1530,0.4960,-100.9690,
12.358218,0.1607,-0.6492,0.3626,-0.1808,0.0110,-0.3311,-13.1530,0.4960,-100.9690,
12.377179,0.1607,-0.6492,0.3626,-0.1332,0.0947,-0.1949,-13.1530,0.4960,-100.9690,
12.395280,0.1607,-0.6492,0.3626,0.0324,0.1466,-0.0147,-13.1530,0.4960,-100.9690,
12.399323,0.1607,-0.6492,0.3626,0.0324,0.1466,-0.0147,-13.4630,-0.6350,-101.0730,
12.414776,0.1607,-0.6492,0.3626,0.0324,0.1466,-0.0147,-13.4630,-0.6350,-101.0730,
12.415694,0.0726,-0.6512,0.0761,0.0324,0.1466,-0.0147,-13.4630,-0.6350,-101.0730,
12.416341,0.0726,-0.6512,0.0761,0.2199,0.1246,0.0458,-13.4630,-0.6350,-101.0730,
12.434928,0.0726,-0.6512,0.0761,0.3005,0.0709,0.0293,-13.4630,-0.6350,-101.0730,
12.455260,0.0726,-0.6512,0.0761,0.3067,0.0092,0.0086,-13.4630,-0.6350,-101.0730,
12.459492,0.0726,-0.6512,0.0761,0.3067,0.0092,0.0086,-13.3910,-1.3600,-100.6290,
12.475468,0.0726,-0.6512,0.0761,0.3067,0.0092,0.0086,-13.3910,-1.3600,-100.6290,
12.476315,0.5017,-0.3881,-1.2200,0.3067,0.0092,0.0086,-13.3910,-1.3600,-100.6290,
12.476804,0.5017,-0.3881,-1.2200,0.2523,-0.0195,0.0098,-13.3910,-1.3600,-100.6290,
12.494591,0.5017,-0.3881,-1.2200,0.1246,-0.0153,-0.0507,-13.3910,-1.3600,-100.6290,
12.515055,0.5017,-0.3881,-1.2200,-0.1063,-0.0055,-0.1747,-13.3910,-1.3600,-100.6290,
12.519642,0.5017,-0.3881,-1.2200,-0.1063,-0.0055,-0.1747,-14.6190,-2.0400,-102.1630,
12.534954,0.5017,-0.3881,-1.2200,-0.1063,-0.0055,-0.1747,-14.6190,-2.0400,-102.1630,
12.536181,0.3859,-0.3881,-1.1813,-0.1063,-0.0055,-0.1747,-14.6190,-2.0400,-102.1630,
12.536666,0.3859,-0.3881,-1.1813,-0.3158,-0.0232,-0.2443,-14.6190,-2.0400,-102.1630,
12.555111,0.3859,-0.3881,-1.1813,-0.3934,0.0440,-0.2107,-14.6190,-2.0400,-102.1630,
12.574942,0.3859,-0.3881,-1.1813,-0.3592,0.0476,-0.1210,-14.6190,-2.0400,-102.1630,
12.579472,0.3859,-0.3881,-1.1813,-0.3592,0.0476,-0.1210,-15.1040,-2.1840,-103.0430,
12.595164,0.3859,-0.3881,-1.1813,-0.3592,0.0476,-0.1210,-15.1040,-2.1840,-103.0430,
12.596463,0.1663,-0.3237,-0.1579,-0.3592,0.0476,-0.1210,-15.1040,-2.1840,-103.0430,
12.596961,0.1663,-0.3237,-0.1579,-0.2468,0.0171,-0.0086,-15.1040,-2.1840,-103.0430,
12.614994,0.1663,-0.3237,-0.1579,-0.1393,-0.0458,-0.0373,-15.1040,-2.1840,-103.0430,
12.635011,0.1663,-0.3237,-0.1579,-0.0892,-0.0599,-0.1014,-15.1040,-2.1840,-103.0430,
12.639871,0.1663,-0.3237,-0.1579,-0.0892,-0.0599,-0.1014,-14.8980,-0.9640,-102.0560,
12.656456,0.1663,-0.3237,-0.1579,-0.0892,-0.0599,-0.1014,-14.8980,-0.9640,-102.0560,
12.657613,0.4707,-0.1304,-0.1409,-0.0892,-0.0599,-0.1014,-14.8980,-0.9640,-102.0560,
12.658600,0.4707,-0.1304,-0.1409,-0.0684,-0.0208,-0.1106,-14.8980,-0.9640,-102.0560,
12.675607,0.4707,-0.1304,-0.1409,-0.0690,0.0360,-0.0690,-14.8980,-0.9640,-102.0560,
12.694843,0.4707,-0.1304,-0.1409,-0.0721,0.1417,0.0250,-14.8980,-0.9640,-102.0560,
12.699283,0.4707,-0.1304,-0.1409,-0.0721,0.1417,0.0250,-14.6960,-0.0070,-99.0800,
12.715044,0.4707,-0.1304,-0.1409,-0.0721,0.1417,0.0250,-14.6960,-0.0070,-99.0800,
12.716091,0.0176,0.0408,-0.3817,-0.0721,0.1417,0.0250,-14.6960,-0.0070,-99.0800,
12.716789,0.0176,0.0408,-0.3817,-0.0599,0.2089,0.0721,-14.6960,-0.0070,-99.0800,
12.736284,0.0176,0.0408,-0.3817,-0.0373,0.1307,0.0709,-14.6960,-0.0070,-99.0800,
12.755617,0.0176,0.0408,-0.3817,-0.0147,0.0287,0.0605,-14.6960,-0.0070,-99.0800,
12.759588,0.0176,0.0408,-0.3817,-0.0147,0.0287,0.0605,-14.5020,-0.6290,-98.8580,
12.775315,0.0176,0.0408,-0.3817,-0.0147,0.0287,0.0605,-14.5020,-0.6290,-98.8580,
12.776391,-0.1541,0.2997,-0.3335,-0.0147,0.0287,0.0605,-14.5020,-0.6290,-98.8580,
12.776952,-0.1541,0.2997,-0.3335,0.0250,0.0165,0.0855,-14.5020,-0.6290,-98.8580,
12.795273,-0.1541,0.2997,-0.3335,0.0660,0.0000,0.1289,-14.5020,-0.6290,-98.8580,
12.815224,-0.1541,0.2997,-0.3335,0.0751,-0.0501,0.1607,-14.5020,-0.6290,-98.8580,
12.819977,-0.1541,0.2997,-0.3335,0.0751,-0.0501,0.1607,-14.5070,-0.4620,-101.1770,
12.835124,-0.1541,0.2997,-0.3335,0.0751,-0.0501,0.1607,-14.5070,-0.4620,-101.1770,
12.836249,0.1351,0.3836,-0.0798,0.0751,-0.0501,0.1607,-14.5070,-0.4620,-101.1770,
12.836878,0.1351,0.3836,-0.0798,0.0544,-0.0782,0.1381,-14.5070,-0.4620,-101.1770,
12.855682,0.1351,0.3836,-0.0798,0.0330,-0.0220,0.1240,-14.5070,-0.4620,-101.1770,
12.875297,0.1351,0.3836,-0.0798,0.0128,-0.0024,0.1381,-14.5070,-0.4620,-101.1770,
12.879445,0.1351,0.3836,-0.0798,0.0128,-0.0024,0.1381,-13.9910,0.2310,-100.9630,
12.894902,0.1351,0.3836,-0.0798,0.0128,-0.0024,0.1381,-13.9910,0.2310,-100.9630,
12.895753,-0.0134,0.1459,0.3763,0.0128,-0.0024,0.1381,-13.9910,0.2310,-100.9630,
12.896279,-0.0134,0.1459,0.3763,0.0159,0.0171,0.1442,-13.9910,0.2310,-100.9630,
12.915861,-0.0134,0.1459,0.3763,0.0458,0.0202,0.1607,-13.9910,0.2310,-100.9630,
12.935187,-0.0134,0.1459,0.3763,0.0702,0.0330,0.1625,-13.9910,0.2310,-100.9630,
12.940635,-0.0134,0.1459,0.3763,0.0702,0.0330,0.1625,-13.5520,-0.2730,-100.5220,
12.955571,-0.0134,0.1459,0.3763,0.0702,0.0330,0.1625,-13.5520,-0.2730,-100.5220,
12.957058,-0.0703,-0.1409,0.6723,0.0702,0.0330,0.1625,-13.5520,-0.2730,-100.5220,
12.957810,-0.0703,-0.1409,0.6723,0.1142,0.0794,0.1998,-13.5520,-0.2730,-100.5220,
12.975282,-0.0703,-0.1409,0.6723,0.1875,0.1319,0.2737,-13.5520,-0.2730,-100.5220,
12.995500,-0.0703,-0.1409,0.6723,0.2462,0.1228,0.3256,-13.5520,-0.2730,-100.5220,
12.999337,-0.0703,-0.1409,0.6723,0.2462,0.1228,0.3256,-13.7900,-0.2970,-100.7410,
13.015245,-0.0703,-0.1409,0.6723,0.2462,0.1228,0.3256,-13.7900,-0.2970,-100.7410,
13.016235,-0.0572,0.0663,0.5598,0.2462,0.1228,0.3256,-13.7900,-0.2970,-100.7410,
13.016806,-0.0572,0.0663,0.5598,0.2450,0.0660,0.2981,-13.7900,-0.2970,-100.7410,
13.035392,-0.0572,0.0663,0.5598,0.2040,0.0434,0.2523,-13.7900,-0.2970,-100.7410,
13.055164,-0.0572,0.0663,0.5598,0.1362,0.1246,0.2291,-13.7900,-0.2970,-100.7410,
13.059780,-0.0572,0.0663,0.5598,0.1362,0.1246,0.2291,-12.9760,-0.3160,-101.5190,
13.076551,-0.0572,0.0663,0.5598,0.1362,0.1246,0.2291,-12.9760,-0.3160,-101.5190,
13.077437,-0.2913,0.1283,0.0293,0.1362,0.1246,0.2291,-12.9760,-0.3160,-101.5190,
13.077953,-0.2913,0.1283,0.0293,0.0281,0.1668,0.1881,-12.9760,-0.3160,-101.5190,
13.095260,-0.2913,0.1283,0.0293,-0.1216,0.0837,0.0739,-12.9760,-0.3160,-101.5190,
13.115546,-0.2913,0.1283,0.0293,-0.3128,-0.1045,-0.0751,-12.9760,-0.3160,-101.5190,
13.119670,-0.2913,0.1283,0.0293,-0.3128,-0.1045,-0.0751,-12.1280,-0.0410,-100.2010,
13.135104,-0.2913,0.1283,0.0293,-0.3128,-0.1045,-0.0751,-12.1280,-0.0410,-100.2010,
13.136000,-0.2615,-0.9093,0.4990,-0.3128,-0.1045,-0.0751,-12.1280,-0.0410,-100.2010,
13.136499,-0.2615,-0.9093,0.4990,-0.4142,-0.1210,-0.0819,-12.1280,-0.0410,-100.2010,
13.155633,-0.2615,-0.9093,0.4990,-0.3855,-0.0623,0.0379,-12.1280,-0.0410,-100.2010,
13.176108,-0.2615,-0.9093,0.4990,-0.2120,0.0330,0.1967,-12.1280,-0.0410,-100.2010,
13.179545,-0.2615,-0.9093,0.4990,-0.2120,0.0330,0.1967,-12.6990,0.2650,-100.9710,
13.195457,-0.2615,-0.9093,0.4990,-0.2120,0.0330,0.1967,-12.6990,0.2650,-100.9710,
13.196467,-0.3678,-0.9938,1.0024,-0.2120,0.0330,0.1967,-12.6990,0.2650,-100.9710,
13.196993,-0.3678,-0.9938,1.0024,0.0305,0.0696,0.2541,-12.6990,0.2650,-100.9710,
13.214985,-0.3678,-0.9938,1.0024,0.2242,-0.0501,0.2132,-12.6990,0.2650,-100.9710,
13.235493,-0.3678,-0.9938,1.0024,0.3311,-0.1301,0.2022,-12.6990,0.2650,-100.9710,
13.240413,-0.3678,-0.9938,1.0024,0.3311,-0.1301,0.2022,-13.0920,-0.2390,-102.0710,
13.255877,-0.3678,-0.9938,1.0024,0.3311,-0.1301,0.2022,-13.0920,-0.2390,-102.0710,
13.257528,-0.8703,-0.4249,-0.6692,0.3311,-0.1301,0.2022,-13.0920,-0.2390,-102.0710,
13.258441,-0.8703,-0.4249,-0.6692,0.3176,-0.1429,0.1961,-13.0920,-0.2390,-102.0710,
13.275577,-0.8703,-0.4249,-0.6692,0.1979,-0.1710,0.1503,-13.0920,-0.2390,-102.0710,
13.294949,-0.8703,-0.4249,-0.6692,-0.0037,-0.2755,0.0232,-13.0920,-0.2390,-102.0710,
13.299920,-0.8703,-0.4249,-0.6692,-0.0037,-0.2755,0.0232,-13.2200,-0.6050,-100.0810,
13.315508,-0.8703,-0.4249,-0.6692,-0.0037,-0.2755,0.0232,-13.2200,-0.6050,-100.0810,
13.316356,-0.2917,-0.7205,-0.7807,-0.0037,-0.2755,0.0232,-13.2200,-0.6050,-100.0810,
13.316816,-0.2917,-0.7205,-0.7807,-0.2443,-0.3299,-0.1344,-13.2200,-0.6050,-100.0810,
13.335440,-0.2917,-0.7205,-0.7807,-0.4032,-0.2456,-0.1717,-13.2200,-0.6050,-100.0810,
13.355640,-0.2917,-0.7205,-0.7807,-0.4239,-0.1271,-0.1167,-13.2200,-0.6050,-100.0810,
13.360029,-0.2917,-0.7205,-0.7807,-0.4239,-0.1271,-0.1167,-13.3110,-0.3310,-98.9780,
13.375207,-0.2917,-0.7205,-0.7807,-0.4239,-0.1271,-0.1167,-13.3110,-0.3310,-98.9780,
13.375933,-1.0519,-0.9800,0.3765,-0.4239,-0.1271,-0.1167,-13.3110,-0.3310,-98.9780,
13.376544,-1.0519,-0.9800,0.3765,-0.3091,-0.0324,-0.0086,-13.3110,-0.3310,-98.9780,
13.395653,-1.0519,-0.9800,0.3765,-0.1436,-0.0171,0.0586,-13.3110,-0.3310,-98.9780,
13.415270,-1.0519,-0.9800,0.3765,0.0024,-0.0232,0.0544,-13.3110,-0.3310,-98.9780,
13.419621,-1.0519,-0.9800,0.3765,0.0024,-0.0232,0.0544,-14.5500,0.5500,-100.1880,
13.435745,-1.0519,-0.9800,0.3765,0.0024,-0.0232,0.0544,-14.5500,0.5500,-100.1880,
13.436735,-0.5656,-0.3366,-0.1453,0.0024,-0.0232,0.0544,-14.5500,0.5500,-100.1880,
13.437276,-0.5656,-0.3366,-0.1453,0.0867,0.0012,0.0244,-14.5500,0.5500,-100.1880,
13.455677,-0.5656,-0.3366,-0.1453,0.0959,0.0507,0.0147,-14.5500,0.5500,-100.1880,
13.476157,-0.5656,-0.3366,-0.1453,0.0721,0.0861,0.0165,-14.5500,0.5500,-100.1880,
13.479813,-0.5656,-0.3366,-0.1453,0.0721,0.0861,0.0165,-15.7360,0.5150,-101.9460,
13.495202,-0.5656,-0.3366,-0.1453,0.0721,0.0861,0.0165,-15.7360,0.5150,-101.9460,
13.495842,0.0142,0.1560,-0.7518,0.0721,0.0861,0.0165,-15.7360,0.5150,-101.9460,
13.496320,0.0142,0.1560,-0.7518,0.0379,0.0464,0.0006,-15.7360,0.5150,-101.9460,
13.515343,0.0142,0.1560,-0.7518,0.0153,-0.0110,-0.0232,-15.7360,0.5150,-101.9460,
13.535111,0.0142,0.1560,-0.7518,0.0006,-0.0104,-0.0562,-15.7360,0.5150,-101.9460,
13.540276,0.0142,0.1560,-0.7518,0.0006,-0.0104,-0.0562,-14.6800,0.4400,-100.9590,
13.555813,0.0142,0.1560,-0.7518,0.0006,-0.0104,-0.0562,-14.6800,0.4400,-100.9590,
13.556741,0.2329,0.3042,-0.5578,0.0006,-0.0104,-0.0562,-14.6800,0.4400,-100.9590,
13.559522,0.2329,0.3042,-0.5578,-0.0165,-0.0660,-0.1008,-14.6800,0.4400,-100.9590,
13.575620,0.2329,0.3042,-0.5578,-0.0305,-0.1246,-0.1411,-14.6800,0.4400,-100.9590,
13.595712,0.2329,0.3042,-0.5578,-0.0189,-0.0867,-0.1362,-14.6800,0.4400,-100.9590,
13.599935,0.2329,0.3042,-0.5578,-0.0189,-0.0867,-0.1362,-14.2490,1.4130,-98.9790,
13.615588,0.2329,0.3042,-0.5578,-0.0189,-0.0867,-0.1362,-14.2490,1.4130,-98.9790,
13.616622,-0.0258,0.3805,0.0105,-0.0189,-0.0867,-0.1362,-14.2490,1.4130,-98.9790,
13.617158,-0.0258,0.3805,0.0105,0.0006,-0.0440,-0.1118,-14.2490,1.4130,-98.9790,
13.635733,-0.0258,0.3805,0.0105,-0.0055,-0.1081,-0.1387,-14.2490,1.4130,-98.9790,
13.658182,-0.0258,0.3805,0.0105,-0.0073,-0.1478,-0.1741,-14.2490,1.4130,-98.9790,
13.661797,-0.0258,0.3805,0.0105,-0.0073,-0.1478,-0.1741,-15.4720,0.6520,-98.9670,
13.675712,-0.0258,0.3805,0.0105,-0.0073,-0.1478,-0.1741,-15.4720,0.6520,-98.9670,
13.676575,-0.1675,0.2129,0.6381,-0.0073,-0.1478,-0.1741,-15.4720,0.6520,-98.9670,
13.677220,-0.1675,0.2129,0.6381,0.0208,-0.0922,-0.1545,-15.4720,0.6520,-98.9670,
13.695217,-0.1675,0.2129,0.6381,0.0318,-0.0800,-0.1319,-15.4720,0.6520,-98.9670,
13.715527,-0.1675,0.2129,0.6381,0.0434,-0.0599,-0.0825,-15.4720,0.6520,-98.9670,
13.720120,-0.1675,0.2129,0.6381,0.0434,-0.0599,-0.0825,-16.9600,-0.5060,-99.7250,
13.735570,-0.1675,0.2129,0.6381,0.0434,-0.0599,-0.0825,-16.9600,-0.5060,-99.7250,
13.737225,-0.3370,0.1244,1.2827,0.0434,-0.0599,-0.0825,-16.9600,-0.5060,-99.7250,
13.738077,-0.3370,0.1244,1.2827,0.1301,-0.0599,0.0269,-16.9600,-0.5060,-99.7250,
13.755763,-0.3370,0.1244,1.2827,0.2468,-0.0623,0.0739,-16.9600,-0.5060,-99.7250,
13.775464,-0.3370,0.1244,1.2827,0.3134,-0.0391,0.0666,-16.9600,-0.5060,-99.7250,
13.779844,-0.3370,0.1244,1.2827,0.3134,-0.0391,0.0666,-16.9170,0.2260,-100.5020,
13.795710,-0.3370,0.1244,1.2827,0.3134,-0.0391,0.0666,-16.9170,0.2260,-100.5020,
13.796494,0.4723,0.3864,0.8032,0.3134,-0.0391,0.0666,-16.9170,0.2260,-100.5020,
13.796899,0.4723,0.3864,0.8032,0.3054,0.0073,0.0208,-16.9170,0.2260,-100.5020,
13.815407,0.4723,0.3864,0.8032,0.2615,0.0153,-0.0452,-16.9170,0.2260,-100.5020,
13.835850,0.4723,0.3864,0.8032,0.1881,-0.0275,-0.0837,-16.9170,0.2260,-100.5020,
13.842527,0.4723,0.3864,0.8032,0.1881,-0.0275,-0.0837,-16.5850,-0.1910,-99.2880,
13.855694,0.4723,0.3864,0.8032,0.1881,-0.0275,-0.0837,-16.5850,-0.1910,-99.2880,
13.856753,0.3833,0.1950,0.1961,0.1881,-0.0275,-0.0837,-16.5850,-0.1910,-99.2880,
13.857543,0.3833,0.1950,0.1961,0.0849,-0.0244,-0.1167,-16.5850,-0.1910,-99.2880,
13.875675,0.3833,0.1950,0.1961,0.0037,0.0892,-0.1772,-16.5850,-0.1910,-99.2880,
13.895839,0.3833,0.1950,0.1961,-0.0819,0.1851,-0.3115,-16.5850,-0.1910,-99.2880,
13.899597,0.3833,0.1950,0.1961,-0.0819,0.1851,-0.3115,-16.6300,-1.1850,-96.3020,
13.916033,0.3833,0.1950,0.1961,-0.0819,0.1851,-0.3115,-16.6300,-1.1850,-96.3020,
13.917050,0.1642,-0.0955,0.1897,-0.0819,0.1851,-0.3115,-16.6300,-1.1850,-96.3020,
13.917747,0.1642,-0.0955,0.1897,-0.1374,0.1894,-0.4184,-16.6300,-1.1850,-96.3020,
13.934841,0.1642,-0.0955,0.1897,-0.1368,0.1839,-0.4172,-16.6300,-1.1850,-96.3020,
13.955670,0.1642,-0.0955,0.1897,-0.0916,0.1955,-0.3445,-16.6300,-1.1850,-96.3020,
13.960108,0.1642,-0.0955,0.1897,-0.0916,0.1955,-0.3445,-16.4730,-2.2760,-96.9610,
13.975102,0.1642,-0.0955,0.1897,-0.0916,0.1955,-0.3445,-16.4730,-2.2760,-96.9610,
13.975702,-0.1834,-0.1960,0.3217,-0.0916,0.1955,-0.3445,-16.4730,-2.2760,-96.9610,
13.976219,-0.1834,-0.1960,0.3217,0.0086,0.2413,-0.2437,-16.4730,-2.2760,-96.9610,
13.995542,-0.1834,-0.1960,0.3217,0.1607,0.2590,-0.1545,-16.4730,-2.2760,-96.9610,
14.015205,-0.1834,-0.1960,0.3217,0.2608,0.2059,-0.1442,-16.4730,-2.2760,-96.9610,
14.019921,-0.1834,-0.1960,0.3217,0.2608,0.2059,-0.1442,-15.9000,-2.2350,-99.1730,
14.035807,-0.1834,-0.1960,0.3217,0.2608,0.2059,-0.1442,-15.9000,-2.2350,-99.1730,
14.037254,0.4111,0.0060,-0.9046,0.2608,0.2059,-0.1442,-15.9000,-2.2350,-99.1730,
14.038123,0.4111,0.0060,-0.9046,0.2334,0.1704,-0.1863,-15.9000,-2.2350,-99.1730,
14.055710,0.4111,0.0060,-0.9046,0.1271,0.1081,-0.2376,-15.9000,-2.2350,-99.1730,
14.076472,0.4111,0.0060,-0.9046,-0.0580,-0.0092,-0.3219,-15.9000,-2.2350,-99.1730,
14.080110,0.4111,0.0060,-0.9046,-0.0580,-0.0092,-0.3219,-14.9210,-1.4190,-101.0600,
14.095256,0.4111,0.0060,-0.9046,-0.0580,-0.0092,-0.3219,-14.9210,-1.4190,-101.0600,
14.096009,0.3031,-0.3901,-1.0443,-0.0580,-0.0092,-0.3219,-14.9210,-1.4190,-101.0600,
14.096464,0.3031,-0.3901,-1.0443,-0.2682,-0.0202,-0.3525,-14.9210,-1.4190,-101.0600,
14.115643,0.3031,-0.3901,-1.0443,-0.3702,0.0929,-0.2700,-14.9210,-1.4190,-101.0600,
14.136543,0.3031,-0.3901,-1.0443,-0.3409,0.1918,-0.0929,-14.9210,-1.4190,-101.0600,
14.140674,0.3031,-0.3901,-1.0443,-0.3409,0.1918,-0.0929,-13.6890,-2.2210,-101.5070,
14.156149,0.3031,-0.3901,-1.0443,-0.3409,0.1918,-0.0929,-13.6890,-2.2210,-101.5070,
14.157411,-0.2286,-0.2054,-0.6183,-0.3409,0.1918,-0.0929,-13.6890,-2.2210,-101.5070,
14.158313,-0.2286,-0.2054,-0.6183,-0.2138,0.2059,0.0617,-13.6890,-2.2210,-101.5070,
14.175827,-0.2286,-0.2054,-0.6183,-0.0788,0.1069,0.1063,-13.6890,-2.2210,-101.5070,
14.196722,-0.2286,-0.2054,-0.6183,-0.0183,-0.0580,0.0287,-13.6890,-2.2210,-101.5070,
14.199721,-0.2286,-0.2054,-0.6183,-0.0183,-0.0580,0.0287,-12.7750,-2.5900,-101.4010,
14.215539,-0.2286,-0.2054,-0.6183,-0.0183,-0.0580,0.0287,-12.7750,-2.5900,-101.4010,
14.216395,0.3757,0.4016,-1.0455,-0.0183,-0.0580,0.0287,-12.7750,-2.5900,-101.4010,
14.216970,0.3757,0.4016,-1.0455,-0.0244,-0.0904,-0.0593,-12.7750,-2.5900,-101.4010,
14.235518,0.3757,0.4016,-1.0455,-0.0648,-0.0776,-0.0684,-12.7750,-2.5900,-101.4010,
14.255624,0.3757,0.4016,-1.0455,-0.1100,-0.0440,0.0006,-12.7750,-2.5900,-101.4010,
14.260405,0.3757,0.4016,-1.0455,-0.1100,-0.0440,0.0006,-13.3560,-2.5520,-100.9550,
14.276023,0.3757,0.4016,-1.0455,-0.1100,-0.0440,0.0006,-13.3560,-2.5520,-100.9550,
14.277144,0.1025,0.1603,-0.7792,-0.1100,-0.0440,0.0006,-13.3560,-2.5520,-100.9550,
14.277628,0.1025,0.1603,-0.7792,-0.1509,0.0232,0.0379,-13.3560,-2.5520,-100.9550,
14.295475,0.1025,0.1603,-0.7792,-0.1753,0.0043,0.0281,-13.3560,-2.5520,-100.9550,
14.315758,0.1025,0.1603,-0.7792,-0.1723,-0.0568,-0.0012,-13.3560,-2.5520,-100.9550,
14.320072,0.1025,0.1603,-0.7792,-0.1723,-0.0568,-0.0012,-15.3140,-2.0960,-100.5030,
14.335724,0.1025,0.1603,-0.7792,-0.1723,-0.0568,-0.0012,-15.3140,-2.0960,-100.5030,
14.337006,-0.2629,0.3068,-0.1286,-0.1723,-0.0568,-0.0012,-15.3140,-2.0960,-100.5030,
14.337553,-0.2629,0.3068,-0.1286,-0.1466,-0.0867,0.0061,-15.3140,-2.0960,-100.5030,
14.355883,-0.2629,0.3068,-0.1286,-0.1008,-0.0367,0.0867,-15.3140,-2.0960,-100.5030,
14.375590,-0.2629,0.3068,-0.1286,-0.0556,0.0037,0.1765,-15.3140,-2.0960,-100.5030,
14.380165,-0.2629,0.3068,-0.1286,-0.0556,0.0037,0.1765,-15.7270,-1.1340,-101.6080,
14.395777,-0.2629,0.3068,-0.1286,-0.0556,0.0037,0.1765,-15.7270,-1.1340,-101.6080,
14.396595,0.0873,0.4596,0.2743,-0.0556,0.0037,0.1765,-15.7270,-1.1340,-101.6080,
14.397020,0.0873,0.4596,0.2743,0.0061,-0.0018,0.1857,-15.7270,-1.1340,-101.6080,
14.415370,0.0873,0.4596,0.2743,0.0421,-0.0415,0.1368,-15.7270,-1.1340,-101.6080,
14.436023,0.0873,0.4596,0.2743,0.0415,-0.0263,0.0996,-15.7270,-1.1340,-101.6080,
14.440271,0.0873,0.4596,0.2743,0.0415,-0.0263,0.0996,-14.9890,-0.6900,-100.9520,
14.455981,0.0873,0.4596,0.2743,0.0415,-0.0263,0.0996,-14.9890,-0.6900,-100.9520,
14.457204,-0.1529,0.2881,0.2608,0.0415,-0.0263,0.0996,-14.9890,-0.6900,-100.9520,
14.457811,-0.1529,0.2881,0.2608,0.0373,0.0342,0.1167,-14.9890,-0.6900,-100.9520,
14.476145,-0.1529,0.2881,0.2608,0.0342,0.0721,0.1607,-14.9890,-0.6900,-100.9520,
14.495536,-0.1529,0.2881,0.2608,0.0226,0.0886,0.1454,-14.9890,-0.6900,-100.9520,
14.499899,-0.1529,0.2881,0.2608,0.0226,0.0886,0.1454,-15.0090,-0.9690,-101.1720,
14.515866,-0.1529,0.2881,0.2608,0.0226,0.0886,0.1454,-15.0090,-0.9690,-101.1720,
14.516859,-0.1453,-0.0871,0.4339,0.0226,0.0886,0.1454,-15.0090,-0.9690,-101.1720,
14.517450,-0.1453,-0.0871,0.4339,0.0275,0.1216,0.1417,-15.0090,-0.9690,-101.1720,
14.537255,-0.1453,-0.0871,0.4339,0.0531,0.1423,0.1851,-15.0090,-0.9690,-101.1720,
14.556446,-0.1453,-0.0871,0.4339,0.1142,0.1081,0.2388,-15.0090,-0.9690,-101.1720,
14.560226,-0.1453,-0.0871,0.4339,0.1142,0.1081,0.2388,-13.6260,-1.2080,-102.0630,
14.575736,-0.1453,-0.0871,0.4339,0.1142,0.1081,0.2388,-13.6260,-1.2080,-102.0630,
14.576617,-0.2033,-0.0025,0.6096,0.1142,0.1081,0.2388,-13.6260,-1.2080,-102.0630,
14.577100,-0.2033,-0.0025,0.6096,0.1307,0.0574,0.2053,-13.6260,-1.2080,-102.0630,
14.596853,-0.2033,-0.0025,0.6096,0.0678,0.0483,0.1307,-13.6260,-1.2080,-102.0630,
14.616353,-0.2033,-0.0025,0.6096,-0.1081,-0.0037,0.0195,-13.6260,-1.2080,-102.0630,
14.623418,-0.2033,-0.0025,0.6096,-0.1081,-0.0037,0.0195,-12.9690,-0.3080,-100.5260,
14.638527,-0.2033,-0.0025,0.6096,-0.1081,-0.0037,0.0195,-12.9690,-0.3080,-100.5260,
14.639696,-0.2552,-0.6174,0.6032,-0.1081,-0.0037,0.0195,-12.9690,-0.3080,-100.5260,
14.640577,-0.2552,-0.6174,0.6032,-0.3567,-0.0586,-0.0788,-12.9690,-0.3080,-100.5260,
14.656079,-0.2552,-0.6174,0.6032,-0.5382,0.0629,-0.0281,-12.9690,-0.3080,-100.5260,
14.676914,-0.2552,-0.6174,0.6032,-0.5406,0.1790,0.1173,-12.9690,-0.3080,-100.5260,
14.680808,-0.2552,-0.6174,0.6032,-0.5406,0.1790,0.1173,-15.1550,0.2180,-99.8510,
14.696932,-0.2552,-0.6174,0.6032,-0.5406,0.1790,0.1173,-15.1550,0.2180,-99.8510,
14.698292,-0.6267,-1.0606,0.8244,-0.5406,0.1790,0.1173,-15.1550,0.2180,-99.8510,
14.699190,-0.6267,-1.0606,0.8244,-0.4368,0.1533,0.2376,-15.1550,0.2180,-99.8510,
14.716022,-0.6267,-1.0606,0.8244,-0.2847,0.0104,0.2621,-15.1550,0.2180,-99.8510,
14.736637,-0.6267,-1.0606,0.8244,-0.1179,-0.1246,0.1894,-15.1550,0.2180,-99.8510,
14.745102,-0.6267,-1.0606,0.8244,-0.1179,-0.1246,0.1894,-15.7560,-0.0210,-99.6250,
